TimeStamp,acc_x,acc_y,acc_z,cal_time,current_LW,current_RW,gyr_x,gyr_y,gyr_z,h_d,psi_dot_d,psi_dot_hat,tau_LW,tau_RW,theta_d,theta_dot_LW,theta_dot_RW,theta_dot_hat,theta_hat,v_d,v_hat,
12,1.02560067,-0.19069675,9.80166149,4.00000000,0.00644531,-0.01289062,-0.00509958,-0.00681490,-0.00513520,0.13476190,0.00000000,0.00000057,0.00000000,0.00000000,-0.00783130,0.00000000,0.00000000,-0.00682325,-0.10403579,0.00000000,-0.00049122,
20,1.01602387,-0.09253448,9.78490162,4.00000000,0.00644531,-0.01289062,-0.00336757,-0.00881337,-0.00433581,0.13476190,0.00000000,-0.00001112,0.00000000,0.00000000,-0.00783130,0.00000000,0.00000000,-0.00880812,-0.10407363,0.00000000,-0.00063339,
28,0.93940938,-0.17154314,9.75856590,4.00000000,0.00644531,-0.01289062,-0.00323436,-0.00534935,-0.00406935,0.13476190,0.00000000,0.00000521,0.00000000,0.00000000,-0.00783130,0.00000000,0.00000000,-0.00534096,-0.10361838,0.00000000,-0.00038475,
36,1.01123548,-0.10450549,9.73222923,4.00000000,0.00644531,-0.01289062,-0.00230172,-0.01014568,-0.00380288,0.13476190,0.00000000,-0.00000466,0.00000000,0.00000000,-0.00783130,0.00000000,0.00000000,-0.01015062,-0.10365390,0.00000000,-0.00073061,
44,1.02320647,-0.16675474,9.81363201,4.00000000,0.00644531,-0.01289062,-0.00283465,-0.01147799,-0.00433581,0.13476190,0.00000000,-0.00000076,0.00000000,0.00000000,-0.00783130,0.00000000,0.00000000,-0.01147212,-0.10374360,0.00000000,-0.00082536,
52,0.98729342,-0.09732288,9.85433388,4.00000000,0.00644531,-0.01289062,-0.00150234,-0.01400938,-0.00300350,0.13476190,0.00000000,0.00000163,0.00000000,0.00000000,-0.00783130,0.00000000,0.00000000,-0.01402201,-0.10388098,0.00000000,-0.00100870,
60,0.95616877,-0.11887070,9.86151600,4.00000000,0.00644531,-0.01289062,-0.00163557,-0.01400938,-0.00300350,0.13476190,0.00000000,0.00000309,0.00000000,0.00000000,-0.00783130,0.00000000,0.00000000,-0.01398723,-0.10389359,0.00000000,-0.00100685,
69,1.07348466,-0.10450549,9.82799721,5.00000000,0.00644531,-0.01289062,-0.00350082,-0.01840602,-0.00473550,0.13476190,0.00000000,-0.00000710,0.00000000,0.00000000,-0.00783130,0.00000000,0.00000000,-0.01840545,-0.10403325,0.00000000,-0.00132413,
76,1.06869626,-0.07577506,9.86391068,4.00000000,0.00644531,-0.01289062,-0.00350082,-0.01480877,-0.00207088,0.13476190,0.00000000,-0.00001032,0.00000000,0.00000000,-0.00783130,0.00000000,0.00000000,-0.01482563,-0.10436052,0.00000000,-0.00106690,
84,1.06869626,-0.15717793,9.81363201,4.00000000,0.00644531,-0.01289062,-0.00469989,-0.01587463,-0.00473550,0.13476190,0.00000000,-0.00001555,0.00000000,0.00000000,-0.00783130,0.00000000,0.00000000,-0.01587323,-0.10451920,0.00000000,-0.00114188,
92,1.11179197,-0.15957212,9.80405521,4.00000000,0.00644531,-0.01289062,-0.00403374,-0.01001245,0.00046052,0.13476190,0.00000000,0.00000390,0.00000000,0.00000000,-0.00783130,0.00000000,0.00000000,-0.01001477,-0.10468287,0.00000000,-0.00072151,
100,1.15967596,-0.13084170,9.83996868,4.00000000,0.00644531,-0.01289062,-0.00336757,-0.00987922,-0.00207088,0.13476190,0.00000000,0.00000357,0.00000000,0.00000000,-0.00783130,0.00000000,0.00000000,-0.00986388,-0.10496347,0.00000000,-0.00071065,
108,1.17643535,-0.18590835,9.81123829,4.00000000,0.00644531,-0.01289062,-0.00430019,-0.00588227,0.00165960,0.13476190,0.00000000,-0.00000980,0.00000000,0.00000000,-0.00783130,0.00000000,0.00000000,-0.00589853,-0.10486341,0.00000000,-0.00042457,
116,1.16685855,-0.14760111,9.75856590,4.00000000,0.00644531,-0.01289062,-0.00483312,-0.00241826,-0.00127149,0.13476190,0.00000000,-0.00000349,0.00000000,0.00000000,-0.00783130,0.00000000,0.00000000,-0.00242647,-0.10554911,0.00000000,-0.00017395,
125,1.15249336,-0.09014028,9.79208469,5.00000000,0.00644531,-0.01289062,-0.00243497,0.00424330,0.00006082,0.13476190,0.00000000,-0.00000788,0.00000000,0.00000000,-0.00783130,0.00000000,0.00000000,0.00426108,-0.10538518,0.00000000,0.00030754,
133,1.17164695,-0.24097499,9.78250790,5.00000000,0.00644531,-0.01289062,-0.00323436,0.00810700,-0.00127149,0.13476190,0.00000000,-0.00000835,0.00000000,0.00000000,-0.00783130,0.00000000,0.00000000,0.00810589,-0.10547210,0.00000000,0.00058304,
141,1.17404115,-0.07338087,9.82560349,5.00000000,0.00644531,-0.01289062,-0.00363405,0.01090486,-0.00353642,0.13476190,0.00000000,0.00000820,0.00000000,0.00000000,-0.00783130,0.00000000,0.00000000,0.01091181,-0.10636992,0.00000000,0.00078627,
149,1.16446435,-0.11887070,9.79208469,5.00000000,0.00644531,-0.01289062,-0.00216851,0.01503503,-0.00513520,0.13476190,0.00000000,-0.00000256,0.00000000,0.00000000,-0.00783130,0.00000000,0.00000000,0.01502886,-0.10653680,0.00000000,0.00108214,
157,1.14531076,-0.16675474,9.73701763,4.00000000,0.00644531,-0.01289062,-0.00230172,0.01969812,-0.00553489,0.13476190,0.00000000,-0.00001758,0.00000000,0.00000000,-0.00783130,0.00000000,0.00000000,0.01969494,-0.10654078,0.00000000,0.00141703,
164,1.10221505,-0.11887070,9.85672760,4.00000000,0.00644531,-0.01289062,-0.00176881,0.02076397,-0.00700043,0.13476190,0.00000000,0.00000912,0.00000000,0.00000000,-0.00783130,0.00000000,0.00000000,0.02074550,-0.10660286,0.00000000,0.00149379,
172,1.15009916,-0.09492868,9.83757401,4.00000000,0.00644531,-0.01289062,0.00049613,0.02569353,-0.00713366,0.13476190,0.00000000,-0.00001387,0.00000000,0.00000000,-0.00783130,0.00000000,0.00000000,0.02569428,-0.10661659,0.00000000,0.00184975,
180,1.03996587,-0.07338087,9.83278561,4.00000000,0.00644531,-0.01289062,-0.00070295,0.02103043,-0.00580135,0.13476190,0.00000000,-0.00000194,0.00000000,0.00000000,-0.00783130,0.00000000,0.00000000,0.02103915,-0.10641048,0.00000000,0.00151453,
188,1.03757167,-0.14999533,9.84954548,4.00000000,0.00644531,-0.01289062,-0.00150234,0.02129690,-0.00566812,0.13476190,0.00000000,-0.00000542,0.00000000,0.00000000,-0.00783130,0.00000000,0.00000000,0.02128114,-0.10616664,0.00000000,0.00153271,
197,0.99687022,-0.18111995,9.80644989,5.00000000,0.00644531,-0.01289062,0.00142874,0.02143013,-0.00433581,0.13476190,0.00000000,-0.00000321,0.00000000,0.00000000,-0.00783130,0.00000000,0.00000000,0.02143232,-0.10592815,0.00000000,0.00154325,
205,0.98250502,-0.09971709,9.83518028,5.00000000,0.00644531,-0.01289062,-0.00216851,0.01703350,-0.00340319,0.13476190,0.00000000,-0.00000347,0.00000000,0.00000000,-0.00783130,0.00000000,0.00000000,0.01703026,-0.10576316,0.00000000,0.00122644,
213,0.98968762,-0.08774608,9.82081509,5.00000000,0.00644531,-0.01289062,-0.00203526,0.01663380,-0.00446904,0.13476190,0.00000000,-0.00001261,0.00000000,0.00000000,-0.00783130,0.00000000,0.00000000,0.01665295,-0.10563113,0.00000000,0.00119805,
221,1.05911946,-0.16914894,9.84475708,5.00000000,0.00644531,-0.01289062,-0.00083619,0.01596764,-0.00406935,0.13476190,0.00000000,0.00000909,0.00000000,0.00000000,-0.00783130,0.00000000,0.00000000,0.01595545,-0.10551675,0.00000000,0.00114879,
229,1.03038907,-0.08774608,9.80884361,5.00000000,0.00644531,-0.01289062,-0.00310113,0.01450210,-0.00313673,0.13476190,0.00000000,0.00001603,0.00000000,0.00000000,-0.00783130,0.00000000,0.00000000,0.01449391,-0.10537914,0.00000000,0.00104398,
236,0.98968762,-0.14281271,9.75856590,4.00000000,0.00644531,-0.01289062,-0.00083619,0.01037193,-0.00247057,0.13476190,0.00000000,0.00000003,0.00000000,0.00000000,-0.00783130,0.00000000,0.00000000,0.01037524,-0.10520223,0.00000000,0.00074571,
244,0.99687022,-0.09014028,9.76574802,4.00000000,0.00644531,-0.01289062,-0.00310113,0.00850669,-0.00087180,0.13476190,0.00000000,0.00000406,0.00000000,0.00000000,-0.00783130,0.00000000,0.00000000,0.00849993,-0.10515799,0.00000000,0.00061232,
252,0.98968762,-0.12605330,9.84236240,4.00000000,0.00644531,-0.01289062,-0.00390051,0.00770731,-0.00273703,0.13476190,0.00000000,-0.00001811,0.00000000,0.00000000,-0.00783130,0.00000000,0.00000000,0.00771446,-0.10481227,0.00000000,0.00055468,
260,1.06630206,-0.09492868,9.83996868,4.00000000,0.00644531,-0.01289062,-0.00323436,0.00331068,-0.00207088,0.13476190,0.00000000,0.00001290,0.00000000,0.00000000,-0.00783130,0.00000000,0.00000000,0.00331435,-0.10490107,0.00000000,0.00023906,
269,1.03038907,-0.14520691,9.79208469,5.00000000,0.00644531,-0.01289062,-0.00350082,-0.00041980,-0.00153795,0.13476190,0.00000000,-0.00000259,0.00000000,0.00000000,-0.00783130,0.00000000,0.00000000,-0.00041595,-0.10487180,0.00000000,-0.00003042,
277,0.97292823,-0.15238953,9.83518028,5.00000000,0.00644531,-0.01289062,-0.00390051,0.00171190,-0.00433581,0.13476190,0.00000000,-0.00001327,0.00000000,0.00000000,-0.00783130,0.00000000,0.00000000,0.00170209,-0.10475295,0.00000000,0.00012279,
285,0.97532243,-0.13802432,9.84715080,5.00000000,0.00644531,-0.01289062,-0.00336757,-0.00095272,-0.00260380,0.13476190,0.00000000,0.00000261,0.00000000,0.00000000,-0.00783130,0.00000000,0.00000000,-0.00094603,-0.10456459,0.00000000,-0.00006859,
293,1.01362967,-0.12605330,9.78729630,4.00000000,0.00644531,-0.01289062,-0.00443344,-0.00348412,-0.00113826,0.13476190,0.00000000,0.00000456,0.00000000,0.00000000,-0.00783130,0.00000000,0.00000000,-0.00348575,-0.10449914,0.00000000,-0.00025131,
300,1.00405288,-0.09253448,9.78729630,4.00000000,0.00644531,-0.01289062,-0.00669836,-0.00068626,-0.00047210,0.13476190,0.00000000,-0.00000374,0.00000000,0.00000000,-0.00783130,0.00000000,0.00000000,-0.00068558,-0.10436645,0.00000000,-0.00004879,
308,1.04714847,-0.11168809,9.83278561,4.00000000,0.00644531,-0.01289062,-0.00443344,-0.00628197,-0.00060533,0.13476190,0.00000000,0.00000319,0.00000000,0.00000000,-0.00783130,0.00000000,0.00000000,-0.00626589,-0.10435855,0.00000000,-0.00045110,
316,1.04475427,-0.10450549,9.79926682,4.00000000,0.00644531,-0.01289062,-0.00416696,-0.00415028,-0.00020564,0.13476190,0.00000000,-0.00000939,0.00000000,0.00000000,-0.00783130,0.00000000,0.00000000,-0.00415859,-0.10445783,0.00000000,-0.00029841,
324,1.03517747,-0.11168809,9.80884361,4.00000000,0.00644531,-0.01289062,-0.00283465,-0.00241826,-0.00167118,0.13476190,0.00000000,0.00000095,0.00000000,0.00000000,-0.00783130,0.00000000,0.00000000,-0.00240048,-0.10448956,0.00000000,-0.00017369,
332,1.04236007,-0.16675474,9.79687309,4.00000000,0.00644531,-0.01289062,-0.00469989,-0.00454997,-0.00247057,0.13476190,0.00000000,-0.00000244,0.00000000,0.00000000,-0.00783130,0.00000000,0.00000000,-0.00456132,-0.10451611,0.00000000,-0.00032777,
341,1.03757167,-0.18111995,9.86391068,4.00000000,0.00644531,-0.01289062,-0.00536604,-0.00694813,-0.00446904,0.13476190,0.00000000,-0.00001589,0.00000000,0.00000000,-0.00783130,0.00000000,0.00000000,-0.00695225,-0.10455427,0.00000000,-0.00049980,
348,1.09742665,-0.05662145,9.74659443,4.00000000,0.00644531,-0.01289062,-0.00070295,-0.00068626,-0.00566812,0.13476190,0.00000000,-0.00000950,0.00000000,0.00000000,-0.00783130,0.00000000,0.00000000,-0.00069302,-0.10473934,0.00000000,-0.00005024,
357,1.06390786,-0.05901565,9.78969002,5.00000000,0.00644531,-0.01289062,-0.00150234,-0.00295119,-0.00326996,0.13476190,0.00000000,-0.00000788,0.00000000,0.00000000,-0.00783130,0.00000000,0.00000000,-0.00295164,-0.10488044,0.00000000,-0.00021344,
365,1.06630206,-0.10211129,9.76574802,5.00000000,0.00644531,-0.01289062,-0.00456667,0.00237806,-0.00406935,0.13476190,0.00000000,-0.00001045,0.00000000,0.00000000,-0.00783130,0.00000000,0.00000000,0.00237463,-0.10511127,0.00000000,0.00017144,
372,1.09024405,-0.09971709,9.85672760,4.00000000,0.00644531,-0.01289062,-0.00203526,0.00277775,-0.00087180,0.13476190,0.00000000,-0.00000458,0.00000000,0.00000000,-0.00783130,0.00000000,0.00000000,0.00280113,-0.10534388,0.00000000,0.00020085,
380,1.06151366,-0.09253448,9.81123829,4.00000000,0.00644531,-0.01289062,-0.00496636,0.00264452,0.00019405,0.13476190,0.00000000,-0.00000006,0.00000000,0.00000000,-0.00783130,0.00000000,0.00000000,0.00263078,-0.10543891,0.00000000,0.00018982,
388,1.10700345,-0.10929389,9.83278561,4.00000000,0.00644531,-0.01289062,-0.00017004,0.00530915,-0.00340319,0.13476190,0.00000000,-0.00000800,0.00000000,0.00000000,-0.00783130,0.00000000,0.00000000,0.00530555,-0.10545254,0.00000000,0.00038206,
397,1.00884128,-0.14520691,9.87109280,5.00000000,0.00644531,-0.01289062,-0.00310113,0.00744085,-0.00273703,0.13476190,0.00000000,0.00000660,0.00000000,0.00000000,-0.00783130,0.00000000,0.00000000,0.00743635,-0.10538665,0.00000000,0.00053487,
404,1.10700345,-0.10689969,9.81363201,4.00000000,0.00644531,-0.01289062,-0.00216851,0.00384360,-0.00526843,0.13476190,0.00000000,-0.00001325,0.00000000,0.00000000,-0.00783130,0.00000000,0.00000000,0.00384969,-0.10542461,0.00000000,0.00027600,
413,1.04954267,-0.17872573,9.89503479,5.00000000,0.00644531,-0.01289062,-0.00390051,0.00637500,-0.00233734,0.13476190,0.00000000,0.00000895,0.00000000,0.00000000,-0.00783130,0.00000000,0.00000000,0.00636707,-0.10540237,0.00000000,0.00045874,
421,1.03757167,-0.18111995,9.84475708,5.00000000,0.00644531,-0.01289062,-0.00056973,0.00903962,-0.00007241,0.13476190,0.00000000,-0.00000247,0.00000000,0.00000000,-0.00783130,0.00000000,0.00000000,0.00904957,-0.10533507,0.00000000,0.00065200,
429,1.00405288,-0.12605330,9.78729630,5.00000000,0.00644531,-0.01289062,-0.00096942,0.01090486,-0.00393611,0.13476190,0.00000000,0.00000228,0.00000000,0.00000000,-0.00783130,0.00000000,0.00000000,0.01091770,-0.10522786,0.00000000,0.00078568,
437,1.02560067,-0.17872573,9.83757401,5.00000000,0.00644531,-0.01289062,-0.00323436,0.01090486,-0.00473550,0.13476190,0.00000000,-0.00001207,0.00000000,0.00000000,-0.00783130,0.00000000,0.00000000,0.01089155,-0.10506461,0.00000000,0.00078396,
444,1.05911946,-0.13563012,9.85433388,4.00000000,0.00644531,-0.01289062,-0.00350082,0.00637500,-0.00420258,0.13476190,0.00000000,0.00000761,0.00000000,0.00000000,-0.00783130,0.00000000,0.00000000,0.00638671,-0.10500530,0.00000000,0.00046035,
452,1.06869626,-0.19548516,9.77053642,4.00000000,0.00644531,-0.01289062,-0.00056973,0.00797377,-0.00393611,0.13476190,0.00000000,0.00000488,0.00000000,0.00000000,-0.00783130,0.00000000,0.00000000,0.00796284,-0.10495008,0.00000000,0.00057365,
460,1.06390786,-0.11887070,9.75377750,4.00000000,0.00644531,-0.01289062,-0.00123588,0.01183748,-0.00273703,0.13476190,0.00000000,-0.00000080,0.00000000,0.00000000,-0.00783130,0.00000000,0.00000000,0.01181899,-0.10493089,0.00000000,0.00085182,
468,1.05911946,-0.12605330,9.84954548,4.00000000,0.00644531,-0.01289062,-0.00203526,0.00757408,-0.00207088,0.13476190,0.00000000,0.00000219,0.00000000,0.00000000,-0.00783130,0.00000000,0.00000000,0.00757906,-0.10491532,0.00000000,0.00054449,
476,1.03038907,-0.16675474,9.76814270,4.00000000,0.00644531,-0.01289062,-0.00190204,0.00597530,-0.00260380,0.13476190,0.00000000,-0.00000541,0.00000000,0.00000000,-0.00783130,0.00000000,0.00000000,0.00598751,-0.10486321,0.00000000,0.00043028,
485,1.00884128,-0.15478373,9.83039188,5.00000000,0.00644531,-0.01289062,-0.00350082,0.00677469,-0.00247057,0.13476190,0.00000000,0.00000595,0.00000000,0.00000000,-0.00783130,0.00000000,0.00000000,0.00677490,-0.10479319,0.00000000,0.00048798,
493,1.02081227,-0.11647650,9.92615986,5.00000000,0.00644531,-0.01289062,-0.00296789,0.00717438,-0.00220411,0.13476190,0.00000000,-0.00000179,0.00000000,0.00000000,-0.00783130,0.00000000,0.00000000,0.00719481,-0.10470972,0.00000000,0.00051720,
501,1.02320647,-0.18351415,9.77532482,5.00000000,0.00644531,-0.01289062,-0.00203526,0.00517591,-0.00260380,0.13476190,0.00000000,-0.00000539,0.00000000,0.00000000,-0.00783130,0.00000000,0.00000000,0.00518336,-0.10464796,0.00000000,0.00037288,
509,0.99447602,-0.13802432,9.83757401,5.00000000,0.00644531,-0.01289062,-0.00270143,0.00517591,-0.00007241,0.13476190,0.00000000,0.00000048,0.00000000,0.00000000,-0.00783130,0.00000000,0.00000000,0.00517967,-0.10456958,0.00000000,0.00037222,
517,0.96095723,-0.17872573,9.83996868,5.00000000,0.00644531,-0.01289062,-0.00363405,0.00211160,-0.00380288,0.13476190,0.00000000,-0.00000875,0.00000000,0.00000000,-0.00783130,0.00000000,0.00000000,0.00210323,-0.10463099,0.00000000,0.00015161,
524,1.01841807,-0.13802432,9.82320881,4.00000000,0.00644531,-0.01289062,-0.00083619,0.00304421,-0.00260380,0.13476190,0.00000000,-0.00000871,0.00000000,0.00000000,-0.00783130,0.00000000,0.00000000,0.00305067,-0.10459430,0.00000000,0.00021985,
532,1.00644708,-0.13084170,9.76095963,4.00000000,0.00644531,-0.01289062,-0.00296789,0.00424330,-0.00300350,0.13476190,0.00000000,-0.00001662,0.00000000,0.00000000,-0.00783130,0.00000000,0.00000000,0.00423170,-0.10455366,0.00000000,0.00030420,
540,1.02560067,-0.13323590,9.77771950,4.00000000,0.00644531,-0.01289062,-0.00150234,0.00264452,-0.00127149,0.13476190,0.00000000,0.00000659,0.00000000,0.00000000,-0.00783130,0.00000000,0.00000000,0.00264668,-0.10451810,0.00000000,0.00019107,
548,1.05911946,-0.08774608,9.87827587,4.00000000,0.00644531,-0.01289062,-0.00443344,0.00197836,-0.00473550,0.13476190,0.00000000,-0.00000928,0.00000000,0.00000000,-0.00783130,0.00000000,0.00000000,0.00197970,-0.10446998,0.00000000,0.00014277,
557,1.07827306,-0.14520691,9.80405521,5.00000000,0.00644531,-0.01289062,-0.00323436,0.00277775,-0.00060533,0.13476190,0.00000000,-0.00001133,0.00000000,0.00000000,-0.00783130,0.00000000,0.00000000,0.00277202,-0.10448930,0.00000000,0.00020000,
565,1.00644708,-0.11408229,9.74898911,5.00000000,0.00644531,-0.01289062,-0.00030326,0.00237806,-0.00100503,0.13476190,0.00000000,0.00000356,0.00000000,0.00000000,-0.00783130,0.00000000,0.00000000,0.00238214,-0.10443091,0.00000000,0.00017105,
573,1.06151366,-0.12605330,9.83757401,5.00000000,0.00644531,-0.01289062,-0.00270143,-0.00055303,-0.00446904,0.13476190,0.00000000,-0.00000109,0.00000000,0.00000000,-0.00783130,0.00000000,0.00000000,-0.00054840,-0.10443515,0.00000000,-0.00003892,
581,0.93940938,-0.19548516,9.82799721,4.00000000,0.00644531,-0.01289062,-0.00350082,-0.00068626,-0.00233734,0.13476190,0.00000000,-0.00001383,0.00000000,0.00000000,-0.00783130,0.00000000,0.00000000,-0.00068833,-0.10423538,0.00000000,-0.00004985,
588,0.94659197,-0.16914894,9.82560349,4.00000000,0.00644531,-0.01289062,-0.00350082,0.00024636,-0.00393611,0.13476190,0.00000000,-0.00000848,0.00000000,0.00000000,-0.00783130,0.00000000,0.00000000,0.00022825,-0.10378702,0.00000000,0.00001641,
596,1.01602387,-0.13563012,9.77532482,4.00000000,0.00644531,-0.01289062,-0.00190204,-0.00521613,-0.00540166,0.13476190,0.00000000,0.00000398,0.00000000,0.00000000,-0.00783130,0.00000000,0.00000000,-0.00519901,-0.10377862,0.00000000,-0.00037342,
605,0.96574563,-0.13323590,9.78011322,5.00000000,0.00644531,-0.01289062,-0.00310113,-0.00641520,-0.00287026,0.13476190,0.00000000,0.00000343,0.00000000,0.00000000,-0.00783130,0.00000000,0.00000000,-0.00642819,-0.10374582,0.00000000,-0.00046363,
612,1.07587886,-0.10211129,9.79687309,4.00000000,0.00644531,-0.01289062,-0.00243497,-0.00494966,-0.00353642,0.13476190,0.00000000,0.00000153,0.00000000,0.00000000,-0.00783130,0.00000000,0.00000000,-0.00496024,-0.10388599,0.00000000,-0.00035753,
620,1.01362967,-0.12844750,9.75617123,4.00000000,0.00644531,-0.01289062,-0.00536604,-0.00468320,-0.00273703,0.13476190,0.00000000,0.00000949,0.00000000,0.00000000,-0.00783130,0.00000000,0.00000000,-0.00468288,-0.10391977,0.00000000,-0.00033800,
629,1.03757167,-0.10929389,9.79208469,4.00000000,0.00644531,-0.01289062,-0.00230172,-0.00321765,0.00059375,0.13476190,0.00000000,0.00000429,0.00000000,0.00000000,-0.00783130,0.00000000,0.00000000,-0.00322405,-0.10400631,0.00000000,-0.00023225,
636,1.08066726,-0.05662145,9.78250790,4.00000000,0.00644531,-0.01289062,-0.00336757,-0.00228503,-0.00366965,0.13476190,0.00000000,-0.00000886,0.00000000,0.00000000,-0.00783130,0.00000000,0.00000000,-0.00228658,-0.10405044,0.00000000,-0.00016469,
645,1.14770496,-0.17154314,9.83518028,5.00000000,0.00644531,-0.01289062,-0.00363405,-0.00335088,-0.00113826,0.13476190,0.00000000,-0.00000298,0.00000000,0.00000000,-0.00783130,0.00000000,0.00000000,-0.00334358,-0.10432649,0.00000000,-0.00024125,
652,1.08306146,-0.12605330,9.67476845,4.00000000,0.00644531,-0.01289062,-0.00336757,-0.00215180,-0.00073857,0.13476190,0.00000000,-0.00000256,0.00000000,0.00000000,-0.00783130,0.00000000,0.00000000,-0.00216219,-0.10441943,0.00000000,-0.00015555,
660,1.13573396,-0.12605330,9.81602669,4.00000000,0.00644531,-0.01289062,-0.00136911,0.00131221,-0.00313673,0.13476190,0.00000000,-0.00000159,0.00000000,0.00000000,-0.00783130,0.00000000,0.00000000,0.00130952,-0.10451174,0.00000000,0.00009428,
668,1.11418617,-0.16436052,9.80884361,4.00000000,0.00644531,-0.01289062,-0.00150234,0.00504268,-0.00446904,0.13476190,0.00000000,0.00000070,0.00000000,0.00000000,-0.00783130,0.00000000,0.00000000,0.00503741,-0.10470517,0.00000000,0.00036303,
676,1.07827306,-0.15478373,9.77293110,4.00000000,0.00644531,-0.01289062,-0.00310113,0.00664146,-0.00167118,0.13476190,0.00000000,-0.00000688,0.00000000,0.00000000,-0.00783130,0.00000000,0.00000000,0.00663323,-0.10486365,0.00000000,0.00047859,
684,1.02560067,-0.14520691,9.82799721,4.00000000,0.00644531,-0.01289062,-0.00190204,0.01277010,-0.00273703,0.13476190,0.00000000,-0.00001251,0.00000000,0.00000000,-0.00783130,0.00000000,0.00000000,0.01277105,-0.10476288,0.00000000,0.00091962,
692,1.09024405,-0.11408229,9.79208469,4.00000000,0.00644531,-0.01289062,-0.00017004,0.01570118,-0.00273703,0.13476190,0.00000000,0.00001163,0.00000000,0.00000000,-0.00783130,0.00000000,0.00000000,0.01570825,-0.10472810,0.00000000,0.00113206,
701,1.04954267,-0.15717793,9.81363201,5.00000000,0.00644531,-0.01289062,-0.00043649,0.01516826,-0.00220411,0.13476190,0.00000000,-0.00000810,0.00000000,0.00000000,-0.00783130,0.00000000,0.00000000,0.01518688,-0.10464506,0.00000000,0.00109277,
709,1.04475427,-0.14041851,9.87588120,5.00000000,0.00644531,-0.01289062,-0.00336757,0.01290333,-0.00606781,0.13476190,0.00000000,0.00204692,0.00000000,0.00000000,-0.00783130,0.00000000,-0.00698132,0.01290591,-0.10457092,0.00000000,0.00118077,
717,1.01602387,-0.06619826,9.86151600,5.00000000,0.00644531,-0.01289062,-0.00136911,0.01050516,-0.00513520,0.13476190,0.00000000,0.00000279,0.00000000,0.00000000,-0.00783130,0.00000000,0.00000000,0.01050279,-0.10443734,0.00000000,0.00075581,
725,1.00405288,-0.18351415,9.87348747,5.00000000,0.00644531,-0.01289062,-0.00110266,0.00810700,-0.00380288,0.13476190,0.00000000,-0.00000417,0.00000000,0.00000000,-0.00783130,0.00000000,0.00000000,0.00810233,-0.10431162,0.00000000,0.00058282,
732,0.94419777,-0.11647650,9.78490162,4.00000000,0.00644531,-0.01289062,-0.00163557,0.00144544,-0.00233734,0.13476190,0.00000000,-0.00001035,0.00000000,0.00000000,-0.00783130,0.00000000,0.00000000,0.00145317,-0.10369022,0.00000000,0.00010455,
740,0.86997753,-0.17154314,9.84236240,4.00000000,0.00644531,-0.01289062,-0.00376728,0.00544238,-0.00366965,0.13476190,0.00000000,-0.00000951,0.00000000,0.00000000,-0.00783130,0.00000000,0.00000000,0.00544855,-0.10271233,0.00000000,0.00039295,
748,0.92504418,-0.14999533,9.83996868,4.00000000,0.00644531,-0.01289062,-0.00296789,-0.00188534,-0.00100503,0.13476190,0.00000000,0.00000403,0.00000000,0.00000000,-0.00783130,0.00000000,0.00000000,-0.00188610,-0.10258376,0.00000000,-0.00013556,
756,0.91067898,-0.10689969,9.82081509,4.00000000,0.00644531,-0.01289062,-0.00483312,-0.00454997,-0.00073857,0.13476190,0.00000000,-0.00001245,0.00000000,0.00000000,-0.00783130,0.00000000,0.00000000,-0.00456105,-0.10231904,0.00000000,-0.00032883,
764,0.99447602,-0.14520691,9.84954548,4.00000000,0.00644531,-0.01289062,-0.00456667,-0.00894660,-0.00167118,0.13476190,0.00000000,-0.00000739,0.00000000,0.00000000,-0.00783130,0.00000000,0.00000000,-0.00894591,-0.10228762,0.00000000,-0.00064390,
773,0.97532243,-0.12844750,9.80884361,5.00000000,0.00644531,-0.01289062,-0.00363405,-0.01254384,-0.00233734,0.13476190,0.00000000,0.00000121,0.00000000,0.00000000,-0.00783130,0.00000000,0.00000000,-0.01253787,-0.10221007,0.00000000,-0.00090293,
781,0.98011082,-0.09014028,9.82799721,5.00000000,0.00644531,-0.01289062,-0.00216851,-0.01560816,-0.00047210,0.13476190,0.00000000,-0.00000617,0.00000000,0.00000000,-0.00783130,0.00000000,0.00000000,-0.01562009,-0.10229185,0.00000000,-0.00112359,
789,1.06390786,-0.15957212,9.84475708,5.00000000,0.00644531,-0.01289062,-0.00563250,-0.01680724,-0.00180442,0.13476190,0.00000000,0.00000136,0.00000000,0.00000000,-0.00783130,0.00000000,0.00000000,-0.01681168,-0.10239823,0.00000000,-0.00121034,
797,1.04236007,-0.11647650,9.72744083,5.00000000,0.00644531,-0.01289062,-0.00390051,-0.01107829,-0.00513520,0.13476190,0.00000000,-0.00000985,0.00000000,0.00000000,-0.00783130,0.00000000,0.00000000,-0.01107541,-0.10254355,0.00000000,-0.00079659,
804,1.13812816,-0.18830255,9.80405521,4.00000000,0.00644531,-0.01289062,-0.00350082,-0.01041214,-0.00020564,0.13476190,0.00000000,0.00000105,0.00000000,0.00000000,-0.00783130,0.00000000,0.00000000,-0.01041808,-0.10298941,0.00000000,-0.00074994,
812,1.13573396,-0.17633153,9.78250790,4.00000000,0.00644531,-0.01289062,-0.00456667,-0.00868014,-0.00260380,0.13476190,0.00000000,-0.00000260,0.00000000,0.00000000,-0.00783130,0.00000000,0.00000000,-0.00867248,-0.10360108,0.00000000,-0.00062499,
820,1.17164695,-0.01592002,9.87109280,4.00000000,0.00644531,-0.01289062,-0.00443344,-0.00428350,-0.00047210,0.13476190,0.00000000,-0.00000805,0.00000000,0.00000000,-0.00783130,0.00000000,0.00000000,-0.00427494,-0.10431540,0.00000000,-0.00030714,
828,1.24107885,-0.14760111,9.80166149,4.00000000,0.00644531,-0.01289062,-0.00376728,-0.00081949,-0.00233734,0.13476190,0.00000000,-0.00000413,0.00000000,0.00000000,-0.00783130,0.00000000,0.00000000,-0.00081997,-0.10419102,0.00000000,-0.00005857,
836,1.17164695,-0.16196632,9.80405521,4.00000000,0.00644531,-0.01289062,-0.00363405,0.00677469,-0.00326996,0.13476190,0.00000000,-0.00000428,0.00000000,0.00000000,-0.00783130,0.00000000,0.00000000,0.00677715,-0.10466865,0.00000000,0.00048703,
845,1.21713674,-0.09971709,9.72744083,5.00000000,0.00644531,-0.01289062,-0.00443344,0.01303656,-0.00433581,0.13476190,0.00000000,0.00000400,0.00000000,0.00000000,-0.00783130,0.00000000,0.00000000,0.01302278,-0.10485797,0.00000000,0.00093671,
853,1.23868465,-0.10689969,9.77532482,5.00000000,0.00644531,-0.01289062,-0.00270143,0.01983135,-0.00420258,0.13476190,0.00000000,0.00000378,0.00000000,0.00000000,-0.00783130,0.00000000,0.00000000,0.01984606,-0.10613434,0.00000000,0.00142825,
861,1.21474254,-0.05901565,9.82560349,5.00000000,0.00644531,-0.01289062,-0.00216851,0.02649291,-0.00700043,0.13476190,0.00000000,-0.00000770,0.00000000,0.00000000,-0.00783130,0.00000000,0.00000000,0.02649205,-0.10611012,0.00000000,0.00190782,
869,1.14770496,-0.09732288,9.84475708,5.00000000,0.00644531,-0.01289062,0.00036289,0.03355417,-0.00526843,0.13476190,0.00000000,-0.00000584,0.00000000,0.00000000,-0.00783130,0.00000000,0.00000000,0.03354188,-0.10607751,0.00000000,0.00241438,
876,1.14291656,-0.06619826,9.79926682,4.00000000,0.00644531,-0.01289062,0.00009643,0.03914988,-0.00700043,0.13476190,0.00000000,0.00000672,0.00000000,0.00000000,-0.00783130,0.00000000,0.00000000,0.03914495,-0.10638715,0.00000000,0.00281839,
884,1.10221505,-0.08056347,9.73941231,4.00000000,0.00644531,-0.01289062,0.00142874,0.04474559,-0.00766659,0.13476190,0.00000000,-0.00000270,0.00000000,0.00000000,-0.00783130,0.00000000,0.00000000,0.04474748,-0.10614240,0.00000000,0.00322284,
892,1.03038907,-0.04704465,9.81842041,4.00000000,0.00644531,-0.01289062,-0.00323436,0.04647760,-0.00486873,0.13476190,0.00000000,-0.00000265,0.00000000,0.00000000,-0.00783130,0.00000000,0.00000000,0.04649101,-0.10572120,0.00000000,0.00334680,
900,0.95138037,-0.12365910,9.78729630,4.00000000,0.00644531,-0.01289062,-0.00190204,0.04194774,-0.00486873,0.13476190,0.00000000,-0.00000164,0.00000000,0.00000000,-0.00783130,0.00000000,0.00000000,0.04193949,-0.10515430,0.00000000,0.00302070,
908,0.92025578,-0.11408229,9.85672760,4.00000000,0.00644531,-0.01289062,-0.00123588,0.03901665,-0.00113826,0.13476190,0.00000000,-0.00000487,0.00000000,0.00000000,-0.00783130,0.00000000,0.00000000,0.03901479,-0.10496042,0.00000000,0.00280881,
917,0.94180357,-0.12126490,9.83518028,5.00000000,0.00644531,-0.01289062,-0.00203526,0.03701818,-0.00180442,0.13476190,0.00000000,-0.00000152,0.00000000,0.00000000,-0.00783130,0.00000000,0.00000000,0.03703479,-0.10450473,0.00000000,0.00266618,
925,0.92743838,-0.13563012,9.78969002,4.00000000,0.00644531,-0.01289062,-0.00310113,0.03408710,0.00019405,0.13476190,0.00000000,0.00000840,0.00000000,0.00000000,-0.00783130,0.00000000,0.00000000,0.03410015,-0.10370743,0.00000000,0.00245533,
933,0.86518914,-0.16196632,9.80405521,5.00000000,0.00644531,-0.01289062,-0.00350082,0.03009016,-0.00220411,0.13476190,0.00000000,0.00001230,0.00000000,0.00000000,-0.00783130,0.00000000,0.00000000,0.03009204,-0.10341864,0.00000000,0.00216784,
940,0.83645874,-0.17633153,9.83518028,4.00000000,0.00644531,-0.01289062,-0.00216851,0.02675937,-0.00340319,0.13476190,0.00000000,-0.00000392,0.00000000,0.00000000,-0.00783130,0.00000000,0.00000000,0.02677055,-0.10303809,0.00000000,0.00192757,
948,0.82209349,-0.14760111,9.77293110,4.00000000,0.00644531,-0.01289062,-0.00310113,0.02396152,-0.00113826,0.13476190,0.00000000,0.00000903,0.00000000,0.00000000,-0.00783130,0.00000000,0.00000000,0.02396430,-0.10301478,0.00000000,0.00172651,
956,0.84603554,-0.15957212,9.84954548,4.00000000,0.00644531,-0.01289062,-0.00483312,0.01703350,-0.00140472,0.13476190,0.00000000,0.00000600,0.00000000,0.00000000,-0.00783130,0.00000000,0.00000000,0.01702756,-0.10282953,0.00000000,0.00122642,
964,0.86518914,-0.18590835,9.95249557,4.00000000,0.00644531,-0.01289062,-0.00270143,0.00983901,-0.00233734,0.13476190,0.00000000,0.00000032,0.00000000,0.00000000,-0.00783130,0.00000000,0.00000000,0.00983441,-0.10256553,0.00000000,0.00070841,
972,0.86758333,-0.17154314,9.89024639,4.00000000,0.00644531,-0.01289062,-0.00017004,0.00251129,-0.00300350,0.13476190,0.00000000,-0.00001533,0.00000000,0.00000000,-0.00783130,0.00000000,0.00000000,0.00251071,-0.10189716,0.00000000,0.00018022,
980,0.88194853,-0.22900398,9.80405521,4.00000000,0.00644531,-0.01289062,-0.00576575,-0.00574905,-0.00300350,0.13476190,0.00000000,-0.00000134,0.00000000,0.00000000,-0.00783130,0.00000000,0.00000000,-0.00574938,-0.10167370,0.00000000,-0.00041405,
988,0.91067898,-0.18830255,9.81842041,4.00000000,0.00644531,-0.01289062,-0.00310113,-0.00654843,-0.00167118,0.13476190,0.00000000,-0.00001092,0.00000000,0.00000000,-0.00783130,0.00000000,0.00000000,-0.00655733,-0.10151584,0.00000000,-0.00047234,
997,0.84124714,-0.21224457,9.82799721,5.00000000,0.00644531,-0.01289062,-0.00416696,-0.01587463,-0.00460227,0.13476190,0.00000000,0.00000756,0.00000000,0.00000000,-0.00783130,0.00000000,0.00000000,-0.01586130,-0.10155568,0.00000000,-0.00114219,
1005,0.90828478,-0.18351415,9.83278561,5.00000000,0.00644531,-0.01289062,-0.00216851,-0.01294354,-0.00340319,0.13476190,0.00000000,-0.00001534,0.00000000,0.00000000,-0.00783130,0.00000000,0.00000000,-0.01296162,-0.10116351,0.00000000,-0.00093283,
1013,0.97532243,-0.14041851,9.80644989,5.00000000,0.00644531,-0.01289062,-0.00549929,-0.01787309,-0.00047210,0.13476190,0.00000000,0.00000415,0.00000000,0.00000000,-0.00783130,0.00000000,0.00000000,-0.01787693,-0.10126290,0.00000000,-0.00128664,
1020,1.02320647,-0.17154314,9.86151600,4.00000000,0.00644531,-0.01289062,-0.00603220,-0.01800632,-0.00486873,0.13476190,0.00000000,-0.00000174,0.00000000,0.00000000,-0.00783130,0.00000000,0.00000000,-0.01800117,-0.10148087,0.00000000,-0.00129557,
1028,0.99926442,-0.15238953,9.77532482,4.00000000,0.00644531,-0.01289062,-0.00669836,-0.01987156,-0.00420258,0.13476190,0.00000000,0.00000031,0.00000000,0.00000000,-0.00783130,0.00000000,0.00000000,-0.01988037,-0.10162435,0.00000000,-0.00143073,
1036,1.04954267,-0.10929389,9.84954548,4.00000000,0.00644531,-0.01289062,-0.00243497,-0.02000479,-0.00473550,0.13476190,0.00000000,0.00001037,0.00000000,0.00000000,-0.00783130,0.00000000,0.00000000,-0.02001098,-0.10176849,0.00000000,-0.00144081,
1044,1.08784986,-0.08774608,9.83039188,4.00000000,0.00644531,-0.01289062,-0.00283465,-0.01960510,-0.00673397,0.13476190,0.00000000,-0.00000333,0.00000000,0.00000000,-0.00783130,0.00000000,0.00000000,-0.01958649,-0.10231857,0.00000000,-0.00140995,
1052,1.08306146,-0.12844750,9.84475708,4.00000000,0.00644531,-0.01289062,-0.00230172,-0.01387616,-0.00580135,0.13476190,0.00000000,-0.00000910,0.00000000,0.00000000,-0.00783130,0.00000000,0.00000000,-0.01388896,-0.10251042,0.00000000,-0.00099956,
1061,1.10460925,-0.07098667,9.70110416,5.00000000,0.00644531,-0.01289062,0.00009643,-0.01067860,-0.00926537,0.13476190,0.00000000,-0.00000525,0.00000000,0.00000000,-0.00783130,0.00000000,0.00000000,-0.01068159,-0.10270024,0.00000000,-0.00076889,
1069,1.06869626,-0.11168809,9.85912228,5.00000000,0.00644531,-0.01289062,-0.00030326,-0.00961275,-0.00859921,0.13476190,0.00000000,-0.00001164,0.00000000,0.00000000,-0.00783130,0.00000000,0.00000000,-0.00963380,-0.10303965,0.00000000,-0.00069384,
1077,1.05193686,-0.03746784,9.76095963,5.00000000,0.00644531,-0.01289062,-0.00056973,-0.00628197,-0.00819951,0.13476190,0.00000000,-0.00000565,0.00000000,0.00000000,-0.00783130,0.00000000,0.00000000,-0.00627918,-0.10318425,0.00000000,-0.00045062,
1085,0.96813983,-0.10211129,9.77053642,5.00000000,0.00644531,-0.01289062,-0.00296789,-0.00774752,-0.00686720,0.13476190,0.00000000,0.00000823,0.00000000,0.00000000,-0.00783130,0.00000000,0.00000000,-0.00775841,-0.10296793,0.00000000,-0.00055869,
1092,0.95616877,-0.05901565,9.84715080,4.00000000,0.00644531,-0.01289062,-0.00363405,-0.01147799,-0.00473550,0.13476190,0.00000000,0.00000731,0.00000000,0.00000000,-0.00783130,0.00000000,0.00000000,-0.01148303,-0.10268536,0.00000000,-0.00082609,
1100,0.93940938,-0.06859246,9.80166149,4.00000000,0.00644531,-0.01289062,-0.00336757,-0.00987922,-0.00340319,0.13476190,0.00000000,0.00000320,0.00000000,0.00000000,-0.00783130,0.00000000,0.00000000,-0.00987436,-0.10260209,0.00000000,-0.00071104,
1108,0.95377457,-0.12126490,9.82799721,4.00000000,0.00644531,-0.01289062,-0.00430019,-0.01241061,-0.00140472,0.13476190,0.00000000,-0.00000519,0.00000000,0.00000000,-0.00783130,0.00000000,0.00000000,-0.01242188,-0.10260011,0.00000000,-0.00089357,
1116,0.96574563,-0.10450549,9.78490162,4.00000000,0.00644531,-0.01289062,-0.00230172,-0.01360969,-0.00033887,0.13476190,0.00000000,-0.00000561,0.00000000,0.00000000,-0.00783130,0.00000000,0.00000000,-0.01362740,-0.10268106,0.00000000,-0.00098066,
1124,0.98489922,-0.10450549,9.81123829,4.00000000,0.00644531,-0.01289062,-0.00350082,-0.01414262,-0.00060533,0.13476190,0.00000000,0.00000554,0.00000000,0.00000000,-0.00783130,0.00000000,0.00000000,-0.01413730,-0.10271778,0.00000000,-0.00101798,
1133,0.97053403,-0.16675474,9.81123829,5.00000000,0.00644531,-0.01289062,-0.00430019,-0.01800632,0.00139313,0.13476190,0.00000000,-0.00000433,0.00000000,0.00000000,-0.00783130,0.00000000,0.00000000,-0.01801717,-0.10279610,0.00000000,-0.00129850,
1141,1.04475427,-0.12365910,9.76095963,5.00000000,0.00644531,-0.01289062,-0.00256820,-0.01720693,0.00392453,0.13476190,0.00000000,-0.00000303,0.00000000,0.00000000,-0.00783130,0.00000000,0.00000000,-0.01719419,-0.10291261,0.00000000,-0.00123759,
1149,0.99447602,-0.12844750,9.81123829,5.00000000,0.00644531,-0.01289062,-0.00643191,-0.01760663,0.00179283,0.13476190,0.00000000,0.00000706,0.00000000,0.00000000,-0.00783130,0.00000000,0.00000000,-0.01760283,-0.10293988,0.00000000,-0.00126732,
1157,1.08784986,-0.15238953,9.89024639,5.00000000,0.00644531,-0.01289062,-0.00509958,-0.01534170,0.00219252,0.13476190,0.00000000,0.00000200,0.00000000,0.00000000,-0.00783130,0.00000000,0.00000000,-0.01534250,-0.10316047,0.00000000,-0.00110317,
1164,1.09982085,-0.18830255,9.76095963,4.00000000,0.00644531,-0.01289062,-0.00669836,-0.01400938,-0.00087180,0.13476190,0.00000000,-0.00001456,0.00000000,0.00000000,-0.00783130,0.00000000,0.00000000,-0.01401744,-0.10325550,0.00000000,-0.00100829,
1172,1.15728176,-0.18351415,9.89742947,4.00000000,0.00644531,-0.01289062,-0.00536604,-0.00974599,-0.00366965,0.13476190,0.00000000,-0.00001298,0.00000000,0.00000000,-0.00783130,0.00000000,0.00000000,-0.00977180,-0.10321023,0.00000000,-0.00070272,
1180,1.14052236,-0.23379238,9.80405521,4.00000000,0.00644531,-0.01289062,-0.00390051,-0.00947952,-0.00193765,0.13476190,0.00000000,-0.00000482,0.00000000,0.00000000,-0.00783130,0.00000000,0.00000000,-0.00947812,-0.10336386,0.00000000,-0.00068206,
1188,1.09263825,-0.12126490,9.77293110,4.00000000,0.00644531,-0.01289062,-0.00043649,-0.00428350,-0.00433581,0.13476190,0.00000000,-0.00000530,0.00000000,0.00000000,-0.00783130,0.00000000,0.00000000,-0.00428747,-0.10346392,0.00000000,-0.00030918,
1196,1.12855136,-0.09732288,9.79447842,4.00000000,0.00644531,-0.01289062,-0.00256820,-0.00015333,-0.00526843,0.13476190,0.00000000,0.00001141,0.00000000,0.00000000,-0.00783130,0.00000000,0.00000000,-0.00013563,-0.10401793,0.00000000,-0.00001077,
1205,1.07109046,-0.14999533,9.75377750,5.00000000,0.00644531,-0.01289062,-0.00443344,0.00437653,-0.00646751,0.13476190,0.00000000,-0.00000680,0.00000000,0.00000000,-0.00783130,0.00000000,0.00000000,0.00436836,-0.10425785,0.00000000,0.00031553,
1213,1.09503245,-0.14760111,9.80166149,4.00000000,0.00644531,-0.01289062,-0.00323436,0.00331068,-0.00673397,0.13476190,0.00000000,-0.00000485,0.00000000,0.00000000,-0.00783130,0.00000000,0.00000000,0.00330722,-0.10442281,0.00000000,0.00023702,
1221,0.99926442,-0.12844750,9.98601437,5.00000000,0.00644531,-0.01289062,-0.00163557,0.00877316,-0.00473550,0.13476190,0.00000000,-0.00000187,0.00000000,0.00000000,-0.00783130,0.00000000,0.00000000,0.00877997,-0.10445747,0.00000000,0.00063089,
1228,1.02560067,-0.08056347,9.79208469,4.00000000,0.00644531,-0.01289062,-0.00150234,0.00424330,-0.00740013,0.13476190,0.00000000,-0.00000339,0.00000000,0.00000000,-0.00783130,0.00000000,0.00000000,0.00424326,-0.10438699,0.00000000,0.00030469,
1236,1.07587886,-0.08056347,9.87348747,4.00000000,0.00644531,-0.01289062,-0.00216851,0.00331068,-0.00899890,0.13476190,0.00000000,-0.00001526,0.00000000,0.00000000,-0.00783130,0.00000000,0.00000000,0.00331585,-0.10443506,0.00000000,0.00023923,
1244,1.07827306,-0.04943885,9.84954548,4.00000000,0.00644531,-0.01289062,-0.00216851,0.00490945,-0.00380288,0.13476190,0.00000000,0.00001180,0.00000000,0.00000000,-0.00783130,0.00000000,0.00000000,0.00490546,-0.10455180,0.00000000,0.00035214,
1252,1.00884128,-0.01831423,9.81363201,4.00000000,0.00644531,-0.01289062,-0.00230172,0.00770731,-0.00313673,0.13476190,0.00000000,-0.00000085,0.00000000,0.00000000,-0.00783130,0.00000000,0.00000000,0.00772464,-0.10450038,0.00000000,0.00055516,
1260,1.03996587,-0.01592002,9.81842041,4.00000000,0.00644531,-0.01289062,-0.00390051,0.00317745,-0.00233734,0.13476190,0.00000000,-0.00000108,0.00000000,0.00000000,-0.00783130,0.00000000,0.00000000,0.00315778,-0.10446987,0.00000000,0.00022747,
1268,0.99208182,-0.08056347,9.80644989,4.00000000,0.00644531,-0.01289062,-0.00283465,0.00237806,0.00059375,0.13476190,0.00000000,0.00000748,0.00000000,0.00000000,-0.00783130,0.00000000,0.00000000,0.00237910,-0.10426460,0.00000000,0.00017135,
1276,0.97771662,-0.07816927,9.83996868,4.00000000,0.00644531,-0.01289062,-0.00456667,0.00624176,0.00205929,0.13476190,0.00000000,0.00001173,0.00000000,0.00000000,-0.00783130,0.00000000,0.00000000,0.00623653,-0.10429323,0.00000000,0.00044940,
1284,0.98729342,-0.04943885,9.85193920,4.00000000,0.00644531,-0.01289062,-0.00563250,-0.00108596,0.00245899,0.13476190,0.00000000,0.00000507,0.00000000,0.00000000,-0.00783130,0.00000000,0.00000000,-0.00108650,-0.10402854,0.00000000,-0.00007821,
1293,0.98729342,-0.11647650,9.84954548,4.00000000,0.00644531,-0.01289062,-0.00483312,0.00051282,-0.00127149,0.13476190,0.00000000,0.00000457,0.00000000,0.00000000,-0.00783130,0.00000000,0.00000000,0.00051123,-0.10381326,0.00000000,0.00003668,
1300,0.96095723,-0.08535188,9.83757401,4.00000000,0.00644531,-0.01289062,-0.00336757,-0.00295119,-0.00047210,0.13476190,0.00000000,-0.00000474,0.00000000,0.00000000,-0.00783130,0.00000000,0.00000000,-0.00294585,-0.10382080,0.00000000,-0.00021226,
1308,0.94898617,-0.22900398,9.74180603,4.00000000,0.00644531,-0.01289062,-0.00496636,-0.00321765,0.00072698,0.13476190,0.00000000,-0.00000174,0.00000000,0.00000000,-0.00783130,0.00000000,0.00000000,-0.00323018,-0.10339434,0.00000000,-0.00023267,
1316,1.02081227,-0.20506196,9.69631577,4.00000000,0.00644531,-0.01289062,-0.00270143,-0.00321765,-0.00380288,0.13476190,0.00000000,-0.00000229,0.00000000,0.00000000,-0.00783130,0.00000000,0.00000000,-0.00323056,-0.10340934,0.00000000,-0.00023299,
1324,0.93222678,-0.10450549,9.81842041,4.00000000,0.00644531,-0.01289062,-0.00363405,-0.00601551,-0.00593458,0.13476190,0.00000000,0.00000628,0.00000000,0.00000000,-0.00783130,0.00000000,0.00000000,-0.00602106,-0.10300338,0.00000000,-0.00043386,
1332,0.94419777,-0.12605330,9.73941231,4.00000000,0.00644531,-0.01289062,-0.00683160,-0.00774752,-0.00340319,0.13476190,0.00000000,0.00000658,0.00000000,0.00000000,-0.00783130,0.00000000,0.00000000,-0.00773896,-0.10310512,0.00000000,-0.00055792,
1340,0.94419777,-0.17154314,9.73462391,4.00000000,0.00644531,-0.01289062,-0.00070295,-0.01014568,-0.00593458,0.13476190,0.00000000,-0.00000312,0.00000000,0.00000000,-0.00783130,0.00000000,0.00000000,-0.01015710,-0.10281502,0.00000000,-0.00073091,
1349,0.93940938,-0.13323590,9.76814270,5.00000000,0.00644531,-0.01289062,-0.00083619,-0.01227738,-0.00553489,0.13476190,0.00000000,-0.00000415,0.00000000,0.00000000,-0.00783130,0.00000000,0.00000000,-0.01227573,-0.10263973,0.00000000,-0.00088352,
1357,0.89152533,-0.25773439,9.82799721,5.00000000,0.00644531,-0.01289062,-0.00283465,-0.01760663,-0.00486873,0.13476190,0.00000000,-0.00001223,0.00000000,0.00000000,-0.00783130,0.00000000,0.00000000,-0.01761770,-0.10251697,0.00000000,-0.00126868,
1365,0.93701518,-0.17154314,9.89264107,5.00000000,0.00644531,-0.01289062,-0.00150234,-0.02213649,-0.00580135,0.13476190,0.00000000,0.00000333,0.00000000,0.00000000,-0.00783130,0.00000000,0.00000000,-0.02214042,-0.10210703,0.00000000,-0.00159430,
1373,0.97771662,-0.18111995,9.82081509,5.00000000,0.00644531,-0.01289062,-0.00310113,-0.02253618,-0.00899890,0.13476190,0.00000000,-0.00001315,0.00000000,0.00000000,-0.00783130,0.00000000,0.00000000,-0.02253798,-0.10229165,0.00000000,-0.00162041,
1381,0.90110219,-0.20027356,9.78250790,5.00000000,0.00644531,-0.01289062,-0.00190204,-0.02453466,-0.00526843,0.13476190,0.00000000,-0.00001510,0.00000000,0.00000000,-0.00783130,0.00000000,0.00000000,-0.02454383,-0.10231669,0.00000000,-0.00176711,
1388,1.00884128,-0.08774608,9.76335430,4.00000000,0.00644531,-0.01289062,-0.00589897,-0.02893129,-0.00673397,0.13476190,0.00000000,-0.00000183,0.00000000,0.00000000,-0.00783130,0.00000000,0.00000000,-0.02894598,-0.10250671,0.00000000,-0.00208396,
1396,1.05911946,-0.06380406,9.83757401,4.00000000,0.00644531,-0.01289062,-0.00403374,-0.03119621,-0.00753336,0.13476190,0.00000000,0.00000089,0.00000000,0.00000000,-0.00783130,0.00000000,0.00000000,-0.03118965,-0.10270866,0.00000000,-0.00224603,
1404,0.99447602,-0.11647650,9.88066959,4.00000000,0.00644531,-0.01289062,-0.00310113,-0.03146268,-0.00207088,0.13476190,0.00000000,0.00000072,0.00000000,0.00000000,-0.00783130,0.00000000,0.00000000,-0.03146320,-0.10293016,0.00000000,-0.00226443,
1412,1.08306146,-0.10211129,9.80405521,4.00000000,0.00644531,-0.01289062,-0.00416696,-0.03279499,-0.00460227,0.13476190,0.00000000,-0.00001130,0.00000000,0.00000000,-0.00783130,0.00000000,0.00000000,-0.03279709,-0.10310804,0.00000000,-0.00236047,
1421,1.06151366,-0.12605330,9.83518028,5.00000000,0.00644531,-0.01289062,-0.00296789,-0.03479346,-0.00180442,0.13476190,0.00000000,0.00001325,0.00000000,0.00000000,-0.00783130,0.00000000,0.00000000,-0.03477005,-0.10338609,0.00000000,-0.00250382,
1429,1.09742665,-0.10929389,9.77771950,5.00000000,0.00644531,-0.01289062,-0.00469989,-0.03026360,-0.00180442,0.13476190,0.00000000,0.00000254,0.00000000,0.00000000,-0.00783130,0.00000000,0.00000000,-0.03026105,-0.10389137,0.00000000,-0.00217925,
1437,1.14052236,-0.05183305,9.78729630,5.00000000,0.00644531,-0.01289062,-0.00629868,-0.02586697,-0.00087180,0.13476190,0.00000000,0.00000329,0.00000000,0.00000000,-0.00783130,0.00000000,0.00000000,-0.02586241,-0.10406929,0.00000000,-0.00186220,
1445,1.22192514,-0.11408229,9.76574802,5.00000000,0.00644531,-0.01289062,-0.00230172,-0.02053772,-0.00060533,0.13476190,0.00000000,0.00000056,0.00000000,0.00000000,-0.00783130,0.00000000,0.00000000,-0.02053626,-0.10442019,0.00000000,-0.00147703,
1452,1.13094556,-0.03986204,9.83996868,4.00000000,0.00644531,-0.01289062,-0.00390051,-0.01374292,0.00219252,0.13476190,0.00000000,-0.00000920,0.00000000,0.00000000,-0.00783130,0.00000000,0.00000000,-0.01375143,-0.10462822,0.00000000,-0.00098909,
1460,1.20277154,-0.09732288,9.89982319,4.00000000,0.00644531,-0.01289062,-0.00603220,-0.00947952,-0.00100503,0.13476190,0.00000000,0.00000688,0.00000000,0.00000000,-0.00783130,0.00000000,0.00000000,-0.00946775,-0.10481057,0.00000000,-0.00068272,
1468,1.20755994,-0.14281271,9.80884361,4.00000000,0.00644531,-0.01289062,-0.00390051,-0.00774752,-0.00113826,0.13476190,0.00000000,0.00000080,0.00000000,0.00000000,-0.00783130,0.00000000,0.00000000,-0.00774714,-0.10501642,0.00000000,-0.00055803,
1476,1.19798315,-0.17154314,9.85912228,4.00000000,0.00644531,-0.01289062,-0.00416696,0.00131221,0.00072698,0.13476190,0.00000000,-0.00000412,0.00000000,0.00000000,-0.00783130,0.00000000,0.00000000,0.00130612,-0.10581718,0.00000000,0.00009397,
1484,1.20037735,-0.15238953,9.80405521,4.00000000,0.00644531,-0.01289062,-0.00536604,0.00584207,-0.00193765,0.13476190,0.00000000,0.00000834,0.00000000,0.00000000,-0.00783130,0.00000000,0.00000000,0.00585733,-0.10618250,0.00000000,0.00042217,
1493,1.24586725,-0.14041851,9.85912228,5.00000000,0.00644531,-0.01289062,-0.00176881,0.01316979,-0.00326996,0.13476190,0.00000000,-0.00000094,0.00000000,0.00000000,-0.00783130,0.00000000,0.00000000,0.01315227,-0.10633599,0.00000000,0.00094704,
1501,1.19558895,-0.13323590,9.77771950,4.00000000,0.00644531,-0.01289062,-0.00150234,0.01916520,-0.00380288,0.13476190,0.00000000,-0.00000403,0.00000000,0.00000000,-0.00783130,0.00000000,0.00000000,0.01918700,-0.10665392,0.00000000,0.00138128,
1509,1.21474254,-0.15957212,9.70349884,5.00000000,0.00644531,-0.01289062,-0.00203526,0.01716673,-0.00486873,0.13476190,0.00000000,0.00001119,0.00000000,0.00000000,-0.00783130,0.00000000,0.00000000,0.01714765,-0.10636554,0.00000000,0.00123470,
1516,1.15967596,-0.13563012,9.81123829,4.00000000,0.00644531,-0.01289062,-0.00243497,0.02316213,-0.00460227,0.13476190,0.00000000,0.00000174,0.00000000,0.00000000,-0.00783130,0.00000000,0.00000000,0.02315542,-0.10629494,0.00000000,0.00166733,
1524,1.14531076,-0.10929389,9.80166149,4.00000000,0.00644531,-0.01289062,-0.00203526,0.02516060,-0.00566812,0.13476190,0.00000000,-0.00001597,0.00000000,0.00000000,-0.00783130,0.00000000,0.00000000,0.02516130,-0.10592901,0.00000000,0.00181155,
1532,1.02320647,-0.13323590,9.81123829,4.00000000,0.00644531,-0.01289062,-0.00003681,0.02489414,-0.00153795,0.13476190,0.00000000,0.00000653,0.00000000,0.00000000,-0.00783130,0.00000000,0.00000000,0.02487608,-0.10571183,0.00000000,0.00179150,
1540,1.08784986,-0.14520691,9.84236240,4.00000000,0.00644531,-0.01289062,-0.00136911,0.02049751,-0.00287026,0.13476190,0.00000000,0.00000101,0.00000000,0.00000000,-0.00783130,0.00000000,0.00000000,0.02049032,-0.10546326,0.00000000,0.00147426,
1548,0.97532243,-0.14041851,9.76574802,4.00000000,0.00644531,-0.01289062,-0.00376728,0.02302890,-0.00366965,0.13476190,0.00000000,0.00000437,0.00000000,0.00000000,-0.00783130,0.00000000,0.00000000,0.02305327,-0.10527084,0.00000000,0.00166037,
1556,1.00405288,-0.16196632,9.89982319,4.00000000,0.00644531,-0.01289062,-0.00323436,0.02262921,-0.00380288,0.13476190,0.00000000,0.00000604,0.00000000,0.00000000,-0.00783130,0.00000000,0.00000000,0.02262665,-0.10507855,0.00000000,0.00162882,
1564,0.98968762,-0.15478373,9.86630440,4.00000000,0.00644531,-0.01289062,-0.00230172,0.01969812,-0.00393611,0.13476190,0.00000000,-0.00001440,0.00000000,0.00000000,-0.00783130,0.00000000,0.00000000,0.01972348,-0.10484933,0.00000000,0.00141942,
1572,1.06390786,-0.08774608,9.79208469,4.00000000,0.00644531,-0.01289062,-0.00043649,0.02116366,-0.00433581,0.13476190,0.00000000,0.00000396,0.00000000,0.00000000,-0.00783130,0.00000000,0.00000000,0.02116338,-0.10473049,0.00000000,0.00152361,
1581,0.98968762,-0.12365910,9.79208469,4.00000000,0.00644531,-0.01289062,-0.00230172,0.01596764,-0.00326996,0.13476190,0.00000000,0.00000105,0.00000000,0.00000000,-0.00783130,0.00000000,0.00000000,0.01594475,-0.10438377,0.00000000,0.00114858,
1588,0.95616877,-0.06859246,9.80166149,4.00000000,0.00644531,-0.01289062,-0.00283465,0.01636734,-0.00366965,0.13476190,0.00000000,-0.00000396,0.00000000,0.00000000,-0.00783130,0.00000000,0.00000000,0.01638072,-0.10414995,0.00000000,0.00117945,
1596,1.00405288,-0.13802432,9.73701763,4.00000000,0.00644531,-0.01289062,-0.00643191,0.01343625,-0.00127149,0.13476190,0.00000000,-0.00000328,0.00000000,0.00000000,-0.00783130,0.00000000,0.00000000,0.01345445,-0.10400048,0.00000000,0.00096787,
1604,1.05193686,-0.14999533,9.91179466,4.00000000,0.00644531,-0.01289062,-0.00469989,0.00983901,-0.00100503,0.13476190,0.00000000,0.00000443,0.00000000,0.00000000,-0.00783130,0.00000000,0.00000000,0.00984160,-0.10386441,0.00000000,0.00070860,
1612,1.05193686,-0.10450549,9.82560349,4.00000000,0.00644531,-0.01289062,-0.00376728,0.01103809,-0.00366965,0.13476190,0.00000000,-0.00000178,0.00000000,0.00000000,-0.00783130,0.00000000,0.00000000,0.01104948,-0.10384598,0.00000000,0.00079536,
1620,1.02081227,-0.11408229,9.76814270,4.00000000,0.00644531,-0.01289062,-0.00243497,0.00970578,-0.00433581,0.13476190,0.00000000,0.00001074,0.00000000,0.00000000,-0.00783130,0.00000000,0.00000000,0.00969670,-0.10376798,0.00000000,0.00069807,
1628,0.97771662,-0.14760111,9.82560349,4.00000000,0.00644531,-0.01289062,-0.00403374,0.01037193,-0.00087180,0.13476190,0.00000000,0.00000000,0.00000000,0.00000000,-0.00783130,0.00000000,0.00000000,0.01038788,-0.10350017,0.00000000,0.00074738,
1637,1.01841807,-0.18351415,9.86391068,5.00000000,0.00644531,-0.01289062,-0.00096942,0.00650823,-0.00100503,0.13476190,0.00000000,0.00000606,0.00000000,0.00000000,-0.00783130,0.00000000,0.00000000,0.00651975,-0.10341562,0.00000000,0.00046899,
1645,1.02320647,-0.15478373,9.78969002,5.00000000,0.00644531,-0.01289062,-0.00176881,0.00744085,-0.00340319,0.13476190,0.00000000,-0.00001124,0.00000000,0.00000000,-0.00783130,0.00000000,0.00000000,0.00743667,-0.10337451,0.00000000,0.00053591,
1653,0.93701518,-0.14760111,9.65322018,5.00000000,0.00644531,-0.01289062,-0.00110266,0.00797377,-0.00153795,0.13476190,0.00000000,-0.00000889,0.00000000,0.00000000,-0.00783130,0.00000000,0.00000000,0.00797296,-0.10324082,0.00000000,0.00057325,
1661,1.00405288,-0.14760111,9.74420071,5.00000000,0.00644531,-0.01289062,-0.00296789,0.00411006,-0.00406935,0.13476190,0.00000000,-0.00000863,0.00000000,0.00000000,-0.00783130,0.00000000,0.00000000,0.00411453,-0.10316493,0.00000000,0.00029596,
1668,0.97532243,-0.16675474,9.90461159,4.00000000,0.00644531,-0.01289062,-0.00563250,0.00157867,-0.00073857,0.13476190,0.00000000,-0.00001123,0.00000000,0.00000000,-0.00783130,0.00000000,0.00000000,0.00157927,-0.10309315,0.00000000,0.00011234,
1676,0.98489922,-0.13563012,9.81842041,4.00000000,0.00644531,-0.01289062,-0.00416696,-0.00188534,-0.00180442,0.13476190,0.00000000,-0.00000018,0.00000000,0.00000000,-0.00783130,0.00000000,0.00000000,-0.00189459,-0.10289765,0.00000000,-0.00013658,
1684,1.07587886,-0.17633153,9.76814270,4.00000000,0.00644531,-0.01289062,-0.00456667,-0.00095272,-0.00207088,0.13476190,0.00000000,-0.00000295,0.00000000,0.00000000,-0.00783130,0.00000000,0.00000000,-0.00095422,-0.10288565,0.00000000,-0.00006838,
1692,1.09742665,-0.14520691,9.80166149,4.00000000,0.00644531,-0.01289062,-0.00589897,0.00037959,-0.00073857,0.13476190,0.00000000,0.00000401,0.00000000,0.00000000,-0.00783130,0.00000000,0.00000000,0.00036917,-0.10333779,0.00000000,0.00002670,
1700,1.00644708,-0.16436052,9.77293110,4.00000000,0.00644531,-0.01289062,-0.00190204,0.00037959,-0.00047210,0.13476190,0.00000000,-0.00001168,0.00000000,0.00000000,-0.00783130,0.00000000,0.00000000,0.00038985,-0.10329595,0.00000000,0.00002836,
1709,1.02320647,-0.13323590,9.84954548,5.00000000,0.00644531,-0.01289062,-0.00123588,0.00224483,-0.00260380,0.13476190,0.00000000,-0.00000958,0.00000000,0.00000000,-0.00783130,0.00000000,0.00000000,0.00224005,-0.10330124,0.00000000,0.00016186,
1717,1.03038907,-0.12126490,9.73462391,5.00000000,0.00644531,-0.01289062,-0.00083619,0.00637500,-0.00207088,0.13476190,0.00000000,0.00000244,0.00000000,0.00000000,-0.00783130,0.00000000,0.00000000,0.00639557,-0.10324872,0.00000000,0.00046051,
1725,1.06390786,-0.13802432,9.80884361,5.00000000,0.00644531,-0.01289062,0.00049613,0.00624176,-0.00366965,0.13476190,0.00000000,-0.00000022,0.00000000,0.00000000,-0.00783130,0.00000000,0.00000000,0.00623693,-0.10330745,0.00000000,0.00044985,
1733,1.04714847,-0.15957212,9.77532482,5.00000000,0.00644531,-0.01289062,-0.00416696,0.00957255,-0.00260380,0.13476190,0.00000000,0.00000795,0.00000000,0.00000000,-0.00783130,0.00000000,0.00000000,0.00958034,-0.10324696,0.00000000,0.00069008,
1741,1.06390786,-0.12365910,9.82320881,5.00000000,0.00644531,-0.01289062,-0.00350082,0.00624176,-0.00526843,0.13476190,0.00000000,0.00000501,0.00000000,0.00000000,-0.00783130,0.00000000,0.00000000,0.00624728,-0.10322621,0.00000000,0.00044975,
1748,1.03278327,-0.15957212,9.90221786,4.00000000,0.00644531,-0.01289062,-0.00270143,0.00957255,-0.00366965,0.13476190,0.00000000,0.00000769,0.00000000,0.00000000,-0.00783130,0.00000000,0.00000000,0.00956715,-0.10322755,0.00000000,0.00068848,
1756,1.04714847,-0.10689969,9.85672760,4.00000000,0.00644531,-0.01289062,-0.00469989,0.00890639,-0.00393611,0.13476190,0.00000000,-0.00001093,0.00000000,0.00000000,-0.00783130,0.00000000,0.00000000,0.00889441,-0.10325662,0.00000000,0.00063936,
1764,1.00644708,-0.15717793,9.78729630,4.00000000,0.00644531,-0.01289062,-0.00576575,0.00744085,-0.00073857,0.13476190,0.00000000,0.00000034,0.00000000,0.00000000,-0.00783130,0.00000000,0.00000000,0.00743592,-0.10314041,0.00000000,0.00053552,
1772,1.02081227,-0.16914894,9.83757401,4.00000000,0.00644531,-0.01289062,-0.00203526,0.00277775,-0.00313673,0.13476190,0.00000000,-0.00000949,0.00000000,0.00000000,-0.00783130,0.00000000,0.00000000,0.00277738,-0.10307329,0.00000000,0.00019964,
1781,1.08784986,-0.19069675,9.84715080,5.00000000,0.00644531,-0.01289062,-0.00336757,0.00584207,-0.00380288,0.13476190,0.00000000,-0.00000800,0.00000000,0.00000000,-0.00783130,0.00000000,0.00000000,0.00585481,-0.10320575,0.00000000,0.00042178,
1789,0.99926442,-0.17154314,9.77293110,5.00000000,0.00644531,-0.01289062,-0.00376728,0.00490945,-0.00326996,0.13476190,0.00000000,0.00000572,0.00000000,0.00000000,-0.00783130,0.00000000,0.00000000,0.00491532,-0.10314929,0.00000000,0.00035319,
1797,0.97532243,-0.14520691,9.75617123,5.00000000,0.00644531,-0.01289062,-0.00496636,0.00211160,-0.00260380,0.13476190,0.00000000,0.00000146,0.00000000,0.00000000,-0.00783130,0.00000000,0.00000000,0.00210985,-0.10311372,0.00000000,0.00015224,
1805,0.96335143,-0.13323590,9.83518028,4.00000000,0.00644531,-0.01289062,-0.00496636,0.00011313,-0.00153795,0.13476190,0.00000000,0.00000064,0.00000000,0.00000000,-0.00783130,0.00000000,0.00000000,0.00011424,-0.10309277,0.00000000,0.00000815,
1812,1.02799487,-0.10211129,9.82320881,4.00000000,0.00644531,-0.01289062,-0.00509958,-0.00121919,-0.00020564,0.13476190,0.00000000,0.00000096,0.00000000,0.00000000,-0.00783130,0.00000000,0.00000000,-0.00121681,-0.10313243,0.00000000,-0.00008693,
1820,1.02320647,-0.15717793,9.81842041,4.00000000,0.00644531,-0.01289062,-0.00416696,-0.00175211,0.00059375,0.13476190,0.00000000,-0.00000588,0.00000000,0.00000000,-0.00783130,0.00000000,0.00000000,-0.00173636,-0.10315168,0.00000000,-0.00012634,
1828,1.02320647,-0.15478373,9.76814270,4.00000000,0.00644531,-0.01289062,-0.00323436,-0.00241826,-0.00167118,0.13476190,0.00000000,-0.00000725,0.00000000,0.00000000,-0.00783130,0.00000000,0.00000000,-0.00240528,-0.10322756,0.00000000,-0.00017345,
1836,1.08306146,-0.08295767,9.78729630,4.00000000,0.00644531,-0.01289062,-0.00350082,-0.00428350,-0.00260380,0.13476190,0.00000000,-0.00000521,0.00000000,0.00000000,-0.00783130,0.00000000,0.00000000,-0.00429089,-0.10341986,0.00000000,-0.00030837,
1844,1.06390786,-0.10929389,9.73941231,4.00000000,0.00644531,-0.01289062,-0.00363405,-0.00348412,-0.00220411,0.13476190,0.00000000,-0.00001074,0.00000000,0.00000000,-0.00783130,0.00000000,0.00000000,-0.00348754,-0.10350273,0.00000000,-0.00025172,
1853,1.07348466,-0.11168809,9.77532482,4.00000000,0.00644531,-0.01289062,-0.00456667,-0.00321765,-0.00353642,0.13476190,0.00000000,-0.00000457,0.00000000,0.00000000,-0.00783130,0.00000000,0.00000000,-0.00322075,-0.10394521,0.00000000,-0.00023152,
1860,1.10460925,-0.09492868,9.79447842,4.00000000,0.00644531,-0.01289062,-0.00190204,0.00344391,-0.00207088,0.13476190,0.00000000,0.00001573,0.00000000,0.00000000,-0.00783130,0.00000000,0.00000000,0.00344902,-0.10436898,0.00000000,0.00024722,
1869,1.02320647,-0.10211129,9.75617123,5.00000000,0.00644531,-0.01289062,-0.00416696,0.00157867,-0.00153795,0.13476190,0.00000000,-0.00000983,0.00000000,0.00000000,-0.00783130,0.00000000,0.00000000,0.00158189,-0.10434753,0.00000000,0.00011346,
1876,1.11897457,-0.09971709,9.85672760,4.00000000,0.00644531,-0.01289062,-0.00310113,0.00331068,-0.00313673,0.13476190,0.00000000,0.00000928,0.00000000,0.00000000,-0.00783130,0.00000000,0.00000000,0.00332459,-0.10437950,0.00000000,0.00023862,
1884,1.12376297,-0.09014028,9.80644989,4.00000000,0.00644531,-0.01289062,-0.00283465,0.00943931,-0.00100503,0.13476190,0.00000000,-0.00000707,0.00000000,0.00000000,-0.00783130,0.00000000,0.00000000,0.00944718,-0.10471998,0.00000000,0.00067999,
1892,1.10460925,-0.19069675,9.77771950,4.00000000,0.00644531,-0.01289062,-0.00350082,0.00504268,-0.00020564,0.13476190,0.00000000,0.00000329,0.00000000,0.00000000,-0.00783130,0.00000000,0.00000000,0.00503063,-0.10490360,0.00000000,0.00036323,
1900,1.07348466,-0.11887070,9.88785267,4.00000000,0.00644531,-0.01289062,-0.00336757,0.00997224,-0.00446904,0.13476190,0.00000000,0.00000012,0.00000000,0.00000000,-0.00783130,0.00000000,0.00000000,0.00998745,-0.10496446,0.00000000,0.00071795,
1908,1.16207016,-0.10929389,9.76574802,4.00000000,0.00644531,-0.01289062,-0.00176881,0.00943931,-0.00580135,0.13476190,0.00000000,0.00000240,0.00000000,0.00000000,-0.00783130,0.00000000,0.00000000,0.00944677,-0.10546098,0.00000000,0.00067919,
1916,1.05911946,-0.14999533,9.79208469,4.00000000,0.00644531,-0.01289062,-0.00216851,0.01023870,-0.00167118,0.13476190,0.00000000,0.00000051,0.00000000,0.00000000,-0.00783130,0.00000000,0.00000000,0.01023620,-0.10542209,0.00000000,0.00073870,
1925,1.08784986,-0.13323590,9.77293110,5.00000000,0.00644531,-0.01289062,-0.00323436,0.01023870,-0.00260380,0.13476190,0.00000000,-0.00000582,0.00000000,0.00000000,-0.00783130,0.00000000,0.00000000,0.01022631,-0.10558376,0.00000000,0.00073629,
1933,0.99687022,-0.18111995,9.81602669,5.00000000,0.00644531,-0.01289062,-0.00310113,0.00957255,-0.00473550,0.13476190,0.00000000,0.00000245,0.00000000,0.00000000,-0.00783130,0.00000000,0.00000000,0.00956517,-0.10531604,0.00000000,0.00069040,
1941,0.96335143,-0.16196632,9.74659443,5.00000000,0.00644531,-0.01289062,-0.00123588,0.01290333,-0.00020564,0.13476190,0.00000000,0.00000073,0.00000000,0.00000000,-0.00783130,0.00000000,0.00000000,0.01291150,-0.10513868,0.00000000,0.00092962,
1949,0.95138037,-0.13802432,9.83518028,5.00000000,0.00644531,-0.01289062,-0.00390051,0.01130455,-0.00060533,0.13476190,0.00000000,0.00000559,0.00000000,0.00000000,-0.00783130,0.00000000,0.00000000,0.01128975,-0.10514600,0.00000000,0.00081413,
1956,1.02799487,-0.14281271,9.79926682,4.00000000,0.00644531,-0.01289062,-0.00256820,0.00824023,0.00192606,0.13476190,0.00000000,-0.00000744,0.00000000,0.00000000,-0.00783130,0.00000000,0.00000000,0.00824689,-0.10505106,0.00000000,0.00059374,
1964,0.99687022,-0.16914894,9.91179466,4.00000000,0.00644531,-0.01289062,-0.00043649,0.00530915,-0.00340319,0.13476190,0.00000000,-0.00001028,0.00000000,0.00000000,-0.00783130,0.00000000,0.00000000,0.00531110,-0.10492455,0.00000000,0.00038184,
1972,0.99926442,-0.11647650,9.76335430,4.00000000,0.00644531,-0.01289062,-0.00363405,0.00557561,-0.00287026,0.13476190,0.00000000,-0.00000716,0.00000000,0.00000000,-0.00783130,0.00000000,0.00000000,0.00556808,-0.10490625,0.00000000,0.00040101,
1980,0.99208182,-0.18830255,9.81602669,4.00000000,0.00644531,-0.01289062,-0.00283465,0.00104574,-0.00500196,0.13476190,0.00000000,0.00000630,0.00000000,0.00000000,-0.00783130,0.00000000,0.00000000,0.00103941,-0.10480078,0.00000000,0.00007535,
1988,1.01362967,-0.16675474,9.78250790,4.00000000,0.00644531,-0.01289062,-0.00310113,0.00237806,-0.00167118,0.13476190,0.00000000,0.00000240,0.00000000,0.00000000,-0.00783130,0.00000000,0.00000000,0.00236345,-0.10474844,0.00000000,0.00017052,
1997,1.00644708,-0.18830255,9.76095963,5.00000000,0.00644531,-0.01289062,-0.00496636,0.00251129,-0.00007241,0.13476190,0.00000000,0.00000547,0.00000000,0.00000000,-0.00783130,0.00000000,0.00000000,0.00249485,-0.10462106,0.00000000,0.00017996,
2005,0.97053403,-0.07816927,9.82320881,5.00000000,0.00644531,-0.01289062,-0.00469989,0.00264452,-0.00287026,0.13476190,0.00000000,-0.00000230,0.00000000,0.00000000,-0.00783130,0.00000000,0.00000000,0.00265523,-0.10454956,0.00000000,0.00019155,
2013,1.00165868,-0.12126490,9.84236240,5.00000000,0.00644531,-0.01289062,-0.00190204,-0.00002010,-0.00366965,0.13476190,0.00000000,-0.00000116,0.00000000,0.00000000,-0.00783130,0.00000000,0.00000000,-0.00000634,-0.10446077,0.00000000,-0.00000027,
2021,0.99687022,-0.14760111,9.83039188,5.00000000,0.00644531,-0.01289062,-0.00283465,0.00157867,-0.00380288,0.13476190,0.00000000,-0.00000150,0.00000000,0.00000000,-0.00783130,0.00000000,0.00000000,0.00157779,-0.10443612,0.00000000,0.00011321,
2028,1.09263825,-0.16436052,9.83518028,4.00000000,0.00644531,-0.01289062,-0.00376728,0.00117898,-0.00060533,0.13476190,0.00000000,-0.00000231,0.00000000,0.00000000,-0.00783130,0.00000000,0.00000000,0.00118536,-0.10459877,0.00000000,0.00008504,
2037,1.04714847,-0.17872573,9.82081509,5.00000000,0.00644531,-0.01289062,-0.00430019,0.00211160,-0.00353642,0.13476190,0.00000000,-0.00000252,0.00000000,0.00000000,-0.00783130,0.00000000,0.00000000,0.00211046,-0.10462832,0.00000000,0.00015187,
2045,1.08545566,-0.14041851,9.90700626,5.00000000,0.00644531,-0.01289062,-0.00243497,0.00331068,-0.00313673,0.13476190,0.00000000,0.00000361,0.00000000,0.00000000,-0.00783130,0.00000000,0.00000000,0.00331406,-0.10472620,0.00000000,0.00023809,
2052,1.05193686,-0.15717793,9.77053642,4.00000000,0.00644531,-0.01289062,-0.00376728,0.00411006,-0.00326996,0.13476190,0.00000000,-0.00000197,0.00000000,0.00000000,-0.00783130,0.00000000,0.00000000,0.00410486,-0.10479196,0.00000000,0.00029346,
2060,1.05911946,-0.13084170,9.78729630,4.00000000,0.00644531,-0.01289062,0.00036289,0.00584207,0.00032728,0.13476190,0.00000000,0.00000704,0.00000000,0.00000000,-0.00783130,0.00000000,0.00000000,0.00582954,-0.10477600,0.00000000,0.00042074,
2069,1.04714847,-0.09492868,9.79447842,5.00000000,0.00644531,-0.01289062,-0.00256820,0.00824023,-0.00207088,0.13476190,0.00000000,0.00000181,0.00000000,0.00000000,-0.00783130,0.00000000,0.00000000,0.00823577,-0.10473393,0.00000000,0.00059349,
2077,0.99687022,-0.12844750,9.82320881,5.00000000,0.00644531,-0.01289062,-0.00096942,0.00943931,-0.00273703,0.13476190,0.00000000,-0.00000502,0.00000000,0.00000000,-0.00783130,0.00000000,0.00000000,0.00944900,-0.10462409,0.00000000,0.00068048,
2085,1.07109046,-0.08056347,9.81363201,5.00000000,0.00644531,-0.01289062,-0.00416696,0.00744085,-0.00300350,0.13476190,0.00000000,0.00000126,0.00000000,0.00000000,-0.00783130,0.00000000,0.00000000,0.00744239,-0.10474589,0.00000000,0.00053579,
2093,0.94419777,-0.16914894,9.88785267,5.00000000,0.00644531,-0.01289062,-0.00176881,0.00357714,-0.00353642,0.13476190,0.00000000,0.00000609,0.00000000,0.00000000,-0.00783130,0.00000000,0.00000000,0.00356274,-0.10479910,0.00000000,0.00025845,
2100,0.99208182,-0.16675474,9.75377750,4.00000000,0.00644531,-0.01289062,-0.00296789,0.00837346,-0.00180442,0.13476190,0.00000000,-0.00000730,0.00000000,0.00000000,-0.00783130,0.00000000,0.00000000,0.00837236,-0.10474130,0.00000000,0.00060286,
2108,0.97292823,-0.21942717,9.79208469,4.00000000,0.00644531,-0.01289062,-0.00469989,0.00504268,-0.00340319,0.13476190,0.00000000,-0.00000739,0.00000000,0.00000000,-0.00783130,0.00000000,0.00000000,0.00503044,-0.10464237,0.00000000,0.00036250,
2116,0.97771662,-0.18590835,9.77293110,4.00000000,0.00644531,-0.01289062,-0.00310113,0.00171190,-0.00313673,0.13476190,0.00000000,-0.00001015,0.00000000,0.00000000,-0.00783130,0.00000000,0.00000000,0.00170317,-0.10457134,0.00000000,0.00012284,
2124,0.94898617,-0.18351415,9.77053642,4.00000000,0.00644531,-0.01289062,-0.00336757,0.00144544,-0.00446904,0.13476190,0.00000000,-0.00000296,0.00000000,0.00000000,-0.00783130,0.00000000,0.00000000,0.00145341,-0.10455348,0.00000000,0.00010403,
2132,0.93940938,-0.19069675,9.80405521,4.00000000,0.00644531,-0.01289062,-0.00256820,-0.00388381,-0.00340319,0.13476190,0.00000000,0.00000590,0.00000000,0.00000000,-0.00783130,0.00000000,0.00000000,-0.00390830,-0.10419458,0.00000000,-0.00028031,
2141,0.89631379,-0.15478373,9.89024639,4.00000000,0.00644531,-0.01289062,-0.00110266,-0.00588227,-0.00473550,0.13476190,0.00000000,0.00001644,0.00000000,0.00000000,-0.00783130,0.00000000,0.00000000,-0.00586540,-0.10349903,0.00000000,-0.00042130,
2148,0.90589058,-0.18351415,9.83039188,4.00000000,0.00644531,-0.01289062,-0.00430019,-0.01307677,-0.00500196,0.13476190,0.00000000,0.00000588,0.00000000,0.00000000,-0.00783130,0.00000000,0.00000000,-0.01307236,-0.10349099,0.00000000,-0.00094026,
2157,0.89391953,-0.18351415,9.76095963,5.00000000,0.00644531,-0.01289062,-0.00176881,-0.01893894,-0.00300350,0.13476190,0.00000000,-0.00000184,0.00000000,0.00000000,-0.00783130,0.00000000,0.00000000,-0.01893969,-0.10359152,0.00000000,-0.00136493,
2164,0.94898617,-0.10450549,9.74420071,4.00000000,0.00644531,-0.01289062,-0.00243497,-0.01920540,-0.00740013,0.13476190,0.00000000,-0.00000935,0.00000000,0.00000000,-0.00783130,0.00000000,0.00000000,-0.01920555,-0.10368035,0.00000000,-0.00138112,
2172,0.92504418,-0.12844750,9.75377750,4.00000000,0.00644531,-0.01289062,-0.00110266,-0.02306911,-0.00606781,0.13476190,0.00000000,0.00001030,0.00000000,0.00000000,-0.00783130,0.00000000,0.00000000,-0.02307995,-0.10376343,0.00000000,-0.00166217,
2180,0.93222678,-0.14760111,9.78969002,4.00000000,0.00644531,-0.01289062,-0.00350082,-0.02600019,-0.00593458,0.13476190,0.00000000,-0.00000281,0.00000000,0.00000000,-0.00783130,0.00000000,0.00000000,-0.02600290,-0.10375178,0.00000000,-0.00187254,
2188,0.95856303,-0.11887070,9.90700626,4.00000000,0.00644531,-0.01289062,-0.00509958,-0.03092975,-0.00460227,0.13476190,0.00000000,0.00000366,0.00000000,0.00000000,-0.00783130,0.00000000,0.00000000,-0.03091156,-0.10387199,0.00000000,-0.00222720,
2196,0.99926442,-0.12605330,9.89742947,4.00000000,0.00644531,-0.01289062,-0.00310113,-0.02866482,-0.00473550,0.13476190,0.00000000,0.00000196,0.00000000,0.00000000,-0.00783130,0.00000000,0.00000000,-0.02867091,-0.10405347,0.00000000,-0.00206387,
2204,1.00405288,-0.10211129,9.74420071,4.00000000,0.00644531,-0.01289062,-0.00469989,-0.02839836,-0.00313673,0.13476190,0.00000000,-0.00000357,0.00000000,0.00000000,-0.00783130,0.00000000,0.00000000,-0.02840046,-0.10420590,0.00000000,-0.00204469,
2213,1.07587886,-0.03986204,9.78729630,5.00000000,0.00644531,-0.01289062,-0.00296789,-0.03212884,-0.00393611,0.13476190,0.00000000,0.00000583,0.00000000,0.00000000,-0.00783130,0.00000000,0.00000000,-0.03212291,-0.10463320,0.00000000,-0.00231180,
2221,1.09503245,-0.11168809,9.82799721,5.00000000,0.00644531,-0.01289062,-0.00310113,-0.02799867,-0.00366965,0.13476190,0.00000000,0.00000818,0.00000000,0.00000000,-0.00783130,0.00000000,0.00000000,-0.02799301,-0.10496495,0.00000000,-0.00201497,
2229,1.12376297,-0.06140986,9.76095963,5.00000000,0.00644531,-0.01289062,-0.00403374,-0.02693281,-0.00260380,0.13476190,0.00000000,-0.00000248,0.00000000,0.00000000,-0.00783130,0.00000000,0.00000000,-0.02694542,-0.10534208,0.00000000,-0.00194031,
2237,1.13812816,-0.02549683,9.78250790,5.00000000,0.00644531,-0.01289062,-0.00483312,-0.02453466,-0.00153795,0.13476190,0.00000000,0.00000346,0.00000000,0.00000000,-0.00783130,0.00000000,0.00000000,-0.02453298,-0.10597354,0.00000000,-0.00176759,
2245,1.23389626,-0.11647650,9.78969002,5.00000000,0.00644531,-0.01289062,-0.00589897,-0.01680724,-0.00033887,0.13476190,0.00000000,-0.00000349,0.00000000,0.00000000,-0.00783130,0.00000000,0.00000000,-0.01680266,-0.10673285,0.00000000,-0.00120910,
2252,1.20995414,-0.14999533,9.79447842,4.00000000,0.00644531,-0.01289062,-0.00416696,-0.00814721,-0.00087180,0.13476190,0.00000000,-0.00000728,0.00000000,0.00000000,-0.00783130,0.00000000,0.00000000,-0.00818326,-0.10766830,0.00000000,-0.00058904,
2260,1.21713674,-0.04465045,9.75856590,4.00000000,0.00644531,-0.01289062,-0.00563250,-0.00548258,0.00112667,0.13476190,0.00000000,-0.00000077,0.00000000,0.00000000,-0.00783130,0.00000000,0.00000000,-0.00546681,-0.10772440,0.00000000,-0.00039333,
2268,1.24107885,-0.09732288,9.86630440,4.00000000,0.00644531,-0.01289062,-0.00469989,0.00024636,-0.00273703,0.13476190,0.00000000,-0.00000389,0.00000000,0.00000000,-0.00783130,0.00000000,0.00000000,0.00023938,-0.10863032,0.00000000,0.00001685,
2276,1.15488756,-0.16196632,9.72265244,4.00000000,0.00644531,-0.01289062,-0.00443344,0.00331068,-0.00113826,0.13476190,0.00000000,-0.00000140,0.00000000,0.00000000,-0.00783130,0.00000000,0.00000000,0.00332458,-0.10863591,0.00000000,0.00024030,
2285,1.23629045,-0.13802432,9.89503479,5.00000000,0.00644531,-0.01289062,-0.00256820,0.00930608,-0.00540166,0.13476190,0.00000000,0.00000588,0.00000000,0.00000000,-0.00783130,0.00000000,0.00000000,0.00932463,-0.10835474,0.00000000,0.00067042,
2293,1.16207016,-0.09732288,9.89982319,5.00000000,0.00644531,-0.01289062,-0.00056973,0.01277010,-0.00406935,0.13476190,0.00000000,-0.00000465,0.00000000,0.00000000,-0.00783130,0.00000000,0.00000000,0.01277478,-0.10868961,0.00000000,0.00092058,
2301,1.04236007,-0.19309095,9.80644989,5.00000000,0.00644531,-0.01289062,-0.00270143,0.01103809,-0.00726690,0.13476190,0.00000000,0.00000298,0.00000000,0.00000000,-0.00783130,0.00000000,0.00000000,0.01103066,-0.10839280,0.00000000,0.00079517,
2309,1.14770496,-0.16675474,9.71547031,5.00000000,0.00644531,-0.01289062,-0.00136911,0.01583441,-0.00220411,0.13476190,0.00000000,0.00000537,0.00000000,0.00000000,-0.00783130,0.00000000,0.00000000,0.01583248,-0.10876446,0.00000000,0.00113960,
2316,1.09503245,-0.13323590,9.77293110,4.00000000,0.00644531,-0.01289062,0.00156198,0.01703350,-0.00660074,0.13476190,0.00000000,0.00000734,0.00000000,0.00000000,-0.00783130,0.00000000,0.00000000,0.01702971,-0.10858732,0.00000000,0.00122702,
2324,0.99447602,-0.21703297,9.78729630,4.00000000,0.00644531,-0.01289062,-0.00083619,0.01543472,-0.00433581,0.13476190,0.00000000,-0.00000750,0.00000000,0.00000000,-0.00783130,0.00000000,0.00000000,0.01542543,-0.10845398,0.00000000,0.00111074,
2332,1.06151366,-0.18351415,9.78490162,4.00000000,0.00644531,-0.01289062,0.00209490,0.01929843,-0.00393611,0.13476190,0.00000000,-0.00000715,0.00000000,0.00000000,-0.00783130,0.00000000,0.00000000,0.01929954,-0.10832791,0.00000000,0.00138857,
2340,0.95616877,-0.17393734,9.88066959,4.00000000,0.00644531,-0.01289062,-0.00056973,0.01516826,-0.00566812,0.13476190,0.00000000,0.00000046,0.00000000,0.00000000,-0.00783130,0.00000000,0.00000000,0.01518679,-0.10799070,0.00000000,0.00109301,
2348,0.97292823,-0.12365910,9.77293110,4.00000000,0.00644531,-0.01289062,-0.00190204,0.01143778,-0.00446904,0.13476190,0.00000000,-0.00000130,0.00000000,0.00000000,-0.00783130,0.00000000,0.00000000,0.01144615,-0.10770052,0.00000000,0.00082400,
2357,0.97053403,-0.13563012,9.86391068,5.00000000,0.00644531,-0.01289062,-0.00230172,0.00557561,-0.00713366,0.13476190,0.00000000,0.00000107,0.00000000,0.00000000,-0.00783130,0.00000000,0.00000000,0.00556496,-0.10758825,0.00000000,0.00040059,
2365,1.06869626,-0.12365910,9.83757401,5.00000000,0.00644531,-0.01289062,-0.00056973,0.00051282,-0.00513520,0.13476190,0.00000000,0.00001628,0.00000000,0.00000000,-0.00783130,0.00000000,0.00000000,0.00048812,-0.10758808,0.00000000,0.00003638,
2373,1.00405288,-0.12365910,9.78729630,5.00000000,0.00644531,-0.01289062,-0.00243497,-0.00015333,-0.00620105,0.13476190,0.00000000,0.00000327,0.00000000,0.00000000,-0.00783130,0.00000000,0.00000000,-0.00014849,-0.10758974,0.00000000,-0.00001175,
2381,0.94659197,-0.16196632,9.75138283,5.00000000,0.00644531,-0.01289062,-0.00017004,0.00131221,-0.00247057,0.13476190,0.00000000,0.00000279,0.00000000,0.00000000,-0.00783130,0.00000000,0.00000000,0.00132408,-0.10746494,0.00000000,0.00009534,
2389,1.09503245,-0.06859246,9.81842041,5.00000000,0.00644531,-0.01289062,-0.00350082,0.00091251,-0.00233734,0.13476190,0.00000000,0.00000365,0.00000000,0.00000000,-0.00783130,0.00000000,0.00000000,0.00091319,-0.10745461,0.00000000,0.00006549,
2396,1.02799487,-0.11647650,9.80405521,4.00000000,0.00644531,-0.01289062,-0.00283465,0.00184513,-0.00207088,0.13476190,0.00000000,-0.00000356,0.00000000,0.00000000,-0.00783130,0.00000000,0.00000000,0.00183246,-0.10737262,0.00000000,0.00013111,
2404,1.09263825,-0.10450549,9.77532482,4.00000000,0.00644531,-0.01289062,-0.00563250,0.00171190,-0.00380288,0.13476190,0.00000000,-0.00000378,0.00000000,0.00000000,-0.00783130,0.00000000,0.00000000,0.00172314,-0.10751180,0.00000000,0.00012308,
2412,1.09263825,-0.07816927,9.80405521,4.00000000,0.00644531,-0.01289062,-0.00296789,0.00450976,-0.00140472,0.13476190,0.00000000,0.00000009,0.00000000,0.00000000,-0.00783130,0.00000000,0.00000000,0.00450142,-0.10753145,0.00000000,0.00032513,
2420,1.06869626,-0.06619826,9.90700626,4.00000000,0.00644531,-0.01289062,-0.00243497,0.00397683,-0.00220411,0.13476190,0.00000000,0.00001093,0.00000000,0.00000000,-0.00783130,0.00000000,0.00000000,0.00397091,-0.10749579,0.00000000,0.00028678,
2429,1.12855136,-0.15957212,9.80884361,5.00000000,0.00644531,-0.01289062,-0.00536604,0.01157101,-0.00260380,0.13476190,0.00000000,0.00000581,0.00000000,0.00000000,-0.00783130,0.00000000,0.00000000,0.01156506,-0.10767654,0.00000000,0.00083305,
2436,1.08545566,-0.12126490,9.70828724,4.00000000,0.00644531,-0.01289062,-0.00270143,0.00903962,-0.00113826,0.13476190,0.00000000,-0.00000102,0.00000000,0.00000000,-0.00783130,0.00000000,0.00000000,0.00903924,-0.10770145,0.00000000,0.00065128,
2445,1.07348466,-0.12605330,9.74898911,5.00000000,0.00644531,-0.01289062,-0.00083619,0.01370271,-0.00406935,0.13476190,0.00000000,0.00000827,0.00000000,0.00000000,-0.00783130,0.00000000,0.00000000,0.01369967,-0.10773680,0.00000000,0.00098712,
2452,1.09024405,-0.14760111,9.90461159,4.00000000,0.00644531,-0.01289062,-0.00243497,0.01623411,-0.00153795,0.13476190,0.00000000,-0.00000563,0.00000000,0.00000000,-0.00783130,0.00000000,0.00000000,0.01624279,-0.10766350,0.00000000,0.00116993,
2460,1.06151366,-0.07816927,9.76095963,4.00000000,0.00644531,-0.01289062,-0.00243497,0.01969812,-0.00180442,0.13476190,0.00000000,-0.00000239,0.00000000,0.00000000,-0.00783130,0.00000000,0.00000000,0.01970875,-0.10753765,0.00000000,0.00141847,
2468,1.03996587,-0.10929389,9.91658306,4.00000000,0.00644531,-0.01289062,-0.00430019,0.02063074,-0.00100503,0.13476190,0.00000000,0.00000911,0.00000000,0.00000000,-0.00783130,0.00000000,0.00000000,0.02062074,-0.10742709,0.00000000,0.00148495,
2476,1.00884128,-0.09253448,9.83996868,4.00000000,0.00644531,-0.01289062,-0.00443344,0.01663380,-0.00313673,0.13476190,0.00000000,-0.00000419,0.00000000,0.00000000,-0.00783130,0.00000000,0.00000000,0.01664060,-0.10724284,0.00000000,0.00119792,
2484,1.03757167,-0.15238953,9.82560349,4.00000000,0.00644531,-0.01289062,-0.00190204,0.01663380,-0.00486873,0.13476190,0.00000000,-0.00001341,0.00000000,0.00000000,-0.00783130,0.00000000,0.00000000,0.01663128,-0.10702478,0.00000000,0.00119675,
2492,1.03038907,-0.17633153,9.84475708,4.00000000,0.00644531,-0.01289062,-0.00323436,0.01503503,-0.00433581,0.13476190,0.00000000,-0.00000546,0.00000000,0.00000000,-0.00783130,0.00000000,0.00000000,0.01504169,-0.10693559,0.00000000,0.00108355,
2500,1.01123548,-0.13563012,9.79926682,4.00000000,0.00644531,-0.01289062,-0.00136911,0.01197071,-0.00633428,0.13476190,0.00000000,-0.00000093,0.00000000,0.00000000,-0.00783130,0.00000000,0.00000000,0.01197228,-0.10682517,0.00000000,0.00086146,
2508,0.98968762,-0.13084170,9.80405521,4.00000000,0.00644531,-0.01289062,-0.00323436,0.01170424,-0.00526843,0.13476190,0.00000000,-0.00000587,0.00000000,0.00000000,-0.00783130,0.00000000,0.00000000,0.01170591,-0.10645746,0.00000000,0.00084391,
2517,0.97053403,-0.21942717,9.73941231,5.00000000,0.00644531,-0.01289062,-0.00243497,0.00784054,-0.00606781,0.13476190,0.00000000,0.00000215,0.00000000,0.00000000,-0.00783130,0.00000000,0.00000000,0.00783717,-0.10590648,0.00000000,0.00056523,
2525,1.00644708,-0.06859246,9.79208469,5.00000000,0.00644531,-0.01289062,-0.00083619,0.00744085,-0.00287026,0.13476190,0.00000000,0.00000036,0.00000000,0.00000000,-0.00783130,0.00000000,0.00000000,0.00745915,-0.10590684,0.00000000,0.00053642,
2532,0.93701518,-0.13802432,9.82320881,4.00000000,0.00644531,-0.01289062,-0.00363405,0.00264452,-0.00433581,0.13476190,0.00000000,0.00001026,0.00000000,0.00000000,-0.00783130,0.00000000,0.00000000,0.00266137,-0.10532738,0.00000000,0.00019159,
2540,1.00884128,-0.16436052,9.90461159,4.00000000,0.00644531,-0.01289062,-0.00523283,0.00197836,-0.00247057,0.13476190,0.00000000,0.00001621,0.00000000,0.00000000,-0.00783130,0.00000000,0.00000000,0.00196634,-0.10532940,0.00000000,0.00014270,
2548,1.01841807,-0.09014028,9.81842041,4.00000000,0.00644531,-0.01289062,-0.00110266,-0.00241826,-0.00460227,0.13476190,0.00000000,0.00000587,0.00000000,0.00000000,-0.00783130,0.00000000,0.00000000,-0.00241790,-0.10532864,0.00000000,-0.00017335,
2557,1.08545566,-0.13084170,9.83996868,5.00000000,0.00644531,-0.01289062,-0.00496636,0.00037959,-0.00446904,0.13476190,0.00000000,-0.00000416,0.00000000,0.00000000,-0.00783130,0.00000000,0.00000000,0.00039638,-0.10545316,0.00000000,0.00002730,
2564,1.05193686,-0.04943885,9.83757401,4.00000000,0.00644531,-0.01289062,-0.00296789,0.00064605,-0.00526843,0.13476190,0.00000000,-0.00000533,0.00000000,0.00000000,-0.00783130,0.00000000,0.00000000,0.00066123,-0.10548779,0.00000000,0.00004695,
2573,1.08545566,-0.08774608,9.81363201,5.00000000,0.00644531,-0.01289062,-0.00230172,0.00384360,-0.00513520,0.13476190,0.00000000,-0.00000359,0.00000000,0.00000000,-0.00783130,0.00000000,0.00000000,0.00384943,-0.10554230,0.00000000,0.00027716,
2581,1.06390786,-0.07816927,9.77053642,5.00000000,0.00644531,-0.01289062,-0.00443344,0.00397683,-0.00127149,0.13476190,0.00000000,-0.00000343,0.00000000,0.00000000,-0.00783130,0.00000000,0.00000000,0.00396369,-0.10554583,0.00000000,0.00028460,
2589,1.15009916,-0.05901565,9.78250790,5.00000000,0.00644531,-0.01289062,-0.00456667,0.00810700,-0.00340319,0.13476190,0.00000000,-0.00000499,0.00000000,0.00000000,-0.00783130,0.00000000,0.00000000,0.00811283,-0.10572714,0.00000000,0.00058439,
2597,1.09263825,-0.16436052,9.86869907,5.00000000,0.00644531,-0.01289062,-0.00150234,0.01037193,-0.00127149,0.13476190,0.00000000,-0.00000070,0.00000000,0.00000000,-0.00783130,0.00000000,0.00000000,0.01036590,-0.10574625,0.00000000,0.00074717,
2604,1.08784986,-0.09014028,9.89264107,4.00000000,0.00644531,-0.01289062,-0.00350082,0.01556795,-0.00060533,0.13476190,0.00000000,0.00000649,0.00000000,0.00000000,-0.00783130,0.00000000,0.00000000,0.01557126,-0.10585191,0.00000000,0.00112164,
2612,1.10221505,-0.12126490,9.76095963,4.00000000,0.00644531,-0.01289062,-0.00283465,0.01863227,-0.00087180,0.13476190,0.00000000,0.00000260,0.00000000,0.00000000,-0.00783130,0.00000000,0.00000000,0.01861396,-0.10582597,0.00000000,0.00134081,
2620,1.10460925,-0.10689969,9.77053642,4.00000000,0.00644531,-0.01289062,-0.00310113,0.01650057,-0.00207088,0.13476190,0.00000000,0.00000367,0.00000000,0.00000000,-0.00783130,0.00000000,0.00000000,0.01650353,-0.10568099,0.00000000,0.00118852,
2628,1.07348466,-0.13563012,9.76814270,4.00000000,0.00644531,-0.01289062,-0.00390051,0.01729996,-0.00420258,0.13476190,0.00000000,0.00000477,0.00000000,0.00000000,-0.00783130,0.00000000,0.00000000,0.01729812,-0.10573672,0.00000000,0.00124587,
2636,1.03757167,-0.14999533,9.77053642,4.00000000,0.00644531,-0.01289062,-0.00216851,0.02103043,-0.00207088,0.13476190,0.00000000,-0.00000940,0.00000000,0.00000000,-0.00783130,0.00000000,0.00000000,0.02103794,-0.10560302,0.00000000,0.00151504,
2645,0.97771662,-0.08535188,9.83039188,5.00000000,0.00644531,-0.01289062,-0.00336757,0.02222951,0.00219252,0.13476190,0.00000000,0.00000487,0.00000000,0.00000000,-0.00783130,0.00000000,0.00000000,0.02223546,-0.10537190,0.00000000,0.00160112,
2653,0.99687022,-0.17393734,9.81363201,5.00000000,0.00644531,-0.01289062,-0.00190204,0.02116366,-0.00247057,0.13476190,0.00000000,0.00000234,0.00000000,0.00000000,-0.00783130,0.00000000,0.00000000,0.02116322,-0.10502398,0.00000000,0.00152381,
2661,0.96095723,-0.20027356,9.75377750,5.00000000,0.00644531,-0.01289062,-0.00310113,0.01663380,-0.00446904,0.13476190,0.00000000,-0.00000367,0.00000000,0.00000000,-0.00783130,0.00000000,0.00000000,0.01662899,-0.10478128,0.00000000,0.00119763,
2669,0.98729342,-0.13084170,9.79208469,5.00000000,0.00644531,-0.01289062,-0.00496636,0.01676703,-0.00420258,0.13476190,0.00000000,-0.00000060,0.00000000,0.00000000,-0.00783130,0.00000000,0.00000000,0.01676735,-0.10441630,0.00000000,0.00120695,
2676,0.91786158,-0.21703297,9.92855358,4.00000000,0.00644531,-0.01289062,-0.00096942,0.01676703,-0.00220411,0.13476190,0.00000000,0.00000784,0.00000000,0.00000000,-0.00783130,0.00000000,0.00000000,0.01675631,-0.10411941,0.00000000,0.00120677,
2684,0.94180357,-0.14760111,9.83278561,4.00000000,0.00644531,-0.01289062,-0.00483312,0.01050516,-0.00340319,0.13476190,0.00000000,-0.00000020,0.00000000,0.00000000,-0.00783130,0.00000000,0.00000000,0.01051031,-0.10365030,0.00000000,0.00075682,
2692,0.94659197,-0.14999533,9.78011322,4.00000000,0.00644531,-0.01289062,-0.00056973,0.00877316,-0.00580135,0.13476190,0.00000000,-0.00000525,0.00000000,0.00000000,-0.00783130,0.00000000,0.00000000,0.00876502,-0.10368484,0.00000000,0.00063223,
2700,0.90828478,-0.13802432,9.75138283,4.00000000,0.00644531,-0.01289062,-0.00230172,0.00490945,-0.00633428,0.13476190,0.00000000,-0.00000820,0.00000000,0.00000000,-0.00783130,0.00000000,0.00000000,0.00490566,-0.10346051,0.00000000,0.00035395,
2708,0.98011082,-0.15478373,9.82799721,4.00000000,0.00644531,-0.01289062,-0.00509958,0.00570884,-0.00713366,0.13476190,0.00000000,-0.00000155,0.00000000,0.00000000,-0.00783130,0.00000000,0.00000000,0.00569958,-0.10334045,0.00000000,0.00041110,
2717,0.93940938,-0.12365910,9.80644989,5.00000000,0.00644531,-0.01289062,-0.00403374,0.00317745,-0.00513520,0.13476190,0.00000000,-0.00000205,0.00000000,0.00000000,-0.00783130,0.00000000,0.00000000,0.00319403,-0.10317364,0.00000000,0.00022839,
2725,0.99208182,-0.19309095,9.73701763,4.00000000,0.00644531,-0.01289062,-0.00256820,0.00064605,-0.00606781,0.13476190,0.00000000,0.00000390,0.00000000,0.00000000,-0.00783130,0.00000000,0.00000000,0.00063466,-0.10312577,0.00000000,0.00004607,
2733,0.94659197,-0.13323590,9.87109280,5.00000000,0.00644531,-0.01289062,-0.00323436,-0.00041980,-0.00606781,0.13476190,0.00000000,-0.00001353,0.00000000,0.00000000,-0.00783130,0.00000000,0.00000000,-0.00042071,-0.10296734,0.00000000,-0.00003057,
2740,0.97053403,-0.04943885,9.83039188,4.00000000,0.00644531,-0.01289062,-0.00070295,-0.00308442,-0.00540166,0.13476190,0.00000000,-0.00000980,0.00000000,0.00000000,-0.00783130,0.00000000,0.00000000,-0.00307844,-0.10297967,0.00000000,-0.00022205,
2748,1.01123548,-0.08295767,9.90461159,4.00000000,0.00644531,-0.01289062,-0.00443344,-0.00561582,-0.00460227,0.13476190,0.00000000,0.00000757,0.00000000,0.00000000,-0.00783130,0.00000000,0.00000000,-0.00560880,-0.10298455,0.00000000,-0.00040476,
2756,0.99926442,-0.06859246,9.82799721,4.00000000,0.00644531,-0.01289062,-0.00336757,-0.00534935,-0.00486873,0.13476190,0.00000000,-0.00000142,0.00000000,0.00000000,-0.00783130,0.00000000,0.00000000,-0.00535647,-0.10294469,0.00000000,-0.00038515,
2764,1.03517747,-0.12126490,9.78490162,4.00000000,0.00644531,-0.01289062,-0.00150234,-0.00415028,-0.00220411,0.13476190,0.00000000,0.00000560,0.00000000,0.00000000,-0.00783130,0.00000000,0.00000000,-0.00415527,-0.10298944,0.00000000,-0.00029904,
2772,1.04236007,-0.07816927,9.76814270,4.00000000,0.00644531,-0.01289062,-0.00469989,-0.00868014,-0.00273703,0.13476190,0.00000000,0.00000883,0.00000000,0.00000000,-0.00783130,0.00000000,0.00000000,-0.00866825,-0.10316327,0.00000000,-0.00062453,
2780,1.02560067,-0.11887070,9.86630440,4.00000000,0.00644531,-0.01289062,-0.00190204,-0.00494966,-0.00207088,0.13476190,0.00000000,0.00000431,0.00000000,0.00000000,-0.00783130,0.00000000,0.00000000,-0.00495190,-0.10323407,0.00000000,-0.00035642,
2788,0.98968762,-0.16914894,9.87588120,4.00000000,0.00644531,-0.01289062,-0.00176881,-0.00601551,-0.00007241,0.13476190,0.00000000,-0.00000050,0.00000000,0.00000000,-0.00783130,0.00000000,0.00000000,-0.00601495,-0.10306206,0.00000000,-0.00043355,
2796,1.06151366,-0.14281271,9.83757401,4.00000000,0.00644531,-0.01289062,-0.00430019,-0.00841368,0.00152637,0.13476190,0.00000000,-0.00000206,0.00000000,0.00000000,-0.00783130,0.00000000,0.00000000,-0.00842062,-0.10324315,0.00000000,-0.00060609,
2805,1.03757167,-0.11887070,9.85912228,4.00000000,0.00644531,-0.01289062,-0.00336757,-0.01001245,-0.00073857,0.13476190,0.00000000,0.00000248,0.00000000,0.00000000,-0.00783130,0.00000000,0.00000000,-0.01002007,-0.10339462,0.00000000,-0.00072222,
2812,0.98729342,-0.15238953,9.66040325,4.00000000,0.00644531,-0.01289062,-0.00456667,-0.00721459,0.00006082,0.13476190,0.00000000,0.00000260,0.00000000,0.00000000,-0.00783130,0.00000000,0.00000000,-0.00720814,-0.10341578,0.00000000,-0.00051978,
2820,1.00644708,-0.11647650,9.89742947,4.00000000,0.00644531,-0.01289062,-0.00363405,-0.00708136,-0.00247057,0.13476190,0.00000000,0.00001133,0.00000000,0.00000000,-0.00783130,0.00000000,0.00000000,-0.00707834,-0.10343347,0.00000000,-0.00051009,
2828,1.08784986,-0.12605330,9.78250790,4.00000000,0.00644531,-0.01289062,-0.00323436,-0.00721459,-0.00380288,0.13476190,0.00000000,-0.00000247,0.00000000,0.00000000,-0.00783130,0.00000000,0.00000000,-0.00720781,-0.10377341,0.00000000,-0.00051815,
2836,1.03278327,-0.16196632,9.80884361,4.00000000,0.00644531,-0.01289062,-0.00416696,-0.00375058,-0.00313673,0.13476190,0.00000000,0.00000444,0.00000000,0.00000000,-0.00783130,0.00000000,0.00000000,-0.00374666,-0.10385622,0.00000000,-0.00026937,
2844,1.02081227,-0.20027356,9.76574802,4.00000000,0.00644531,-0.01289062,-0.00296789,-0.00761428,-0.00446904,0.13476190,0.00000000,0.00000412,0.00000000,0.00000000,-0.00783130,0.00000000,0.00000000,-0.00761308,-0.10388532,0.00000000,-0.00054849,
2852,0.99926442,-0.21942717,9.81363201,4.00000000,0.00644531,-0.01289062,-0.00190204,-0.00521613,-0.00473550,0.13476190,0.00000000,-0.00000532,0.00000000,0.00000000,-0.00783130,0.00000000,0.00000000,-0.00522667,-0.10386113,0.00000000,-0.00037469,
2861,1.02081227,-0.16436052,9.83518028,5.00000000,0.00644531,-0.01289062,-0.00310113,-0.00375058,-0.00513520,0.13476190,0.00000000,0.00000251,0.00000000,0.00000000,-0.00783130,0.00000000,0.00000000,-0.00375893,-0.10390554,0.00000000,-0.00027170,
2869,1.00405288,-0.18351415,9.76574802,5.00000000,0.00644531,-0.01289062,0.00022966,-0.00468320,-0.00593458,0.13476190,0.00000000,-0.00000936,0.00000000,0.00000000,-0.00783130,0.00000000,0.00000000,-0.00467170,-0.10391096,0.00000000,-0.00033676,
2877,1.10221505,-0.11647650,9.88545799,5.00000000,0.00644531,-0.01289062,-0.00230172,-0.00588227,-0.00740013,0.13476190,0.00000000,-0.00001173,0.00000000,0.00000000,-0.00783130,0.00000000,0.00000000,-0.00589513,-0.10397975,0.00000000,-0.00042427,
2885,1.07827306,-0.05901565,9.73222923,5.00000000,0.00644531,-0.01289062,0.00116228,0.00037959,-0.00513520,0.13476190,0.00000000,-0.00000918,0.00000000,0.00000000,-0.00783130,0.00000000,0.00000000,0.00037323,-0.10404772,0.00000000,0.00002772,
2892,0.96813983,-0.08774608,9.74898911,4.00000000,0.00644531,-0.01289062,-0.00136911,-0.00441673,-0.00793305,0.13476190,0.00000000,-0.00001060,0.00000000,0.00000000,-0.00783130,0.00000000,0.00000000,-0.00441950,-0.10404531,0.00000000,-0.00031926,
2900,1.01362967,-0.11408229,9.79208469,4.00000000,0.00644531,-0.01289062,-0.00310113,-0.00281796,-0.00673397,0.13476190,0.00000000,0.00000107,0.00000000,0.00000000,-0.00783130,0.00000000,0.00000000,-0.00281103,-0.10402790,0.00000000,-0.00020332,
2908,1.10460925,-0.03986204,9.78729630,4.00000000,0.00644531,-0.01289062,-0.00176881,0.00051282,-0.00553489,0.13476190,0.00000000,-0.00000476,0.00000000,0.00000000,-0.00783130,0.00000000,0.00000000,0.00052316,-0.10431278,0.00000000,0.00003669,
2916,1.04236007,-0.08056347,9.81842041,4.00000000,0.00644531,-0.01289062,-0.00216851,-0.00175211,-0.00393611,0.13476190,0.00000000,0.00001486,0.00000000,0.00000000,-0.00783130,0.00000000,0.00000000,-0.00176379,-0.10432123,0.00000000,-0.00012790,
2924,1.06869626,-0.06140986,9.82081509,4.00000000,0.00644531,-0.01289062,-0.00469989,0.00131221,-0.00406935,0.13476190,0.00000000,0.00000330,0.00000000,0.00000000,-0.00783130,0.00000000,0.00000000,0.00132967,-0.10438833,0.00000000,0.00009401,
2933,0.98729342,-0.09492868,9.80644989,5.00000000,0.00644531,-0.01289062,-0.00243497,-0.00121919,-0.00167118,0.13476190,0.00000000,0.00000320,0.00000000,0.00000000,-0.00783130,0.00000000,0.00000000,-0.00121732,-0.10427768,0.00000000,-0.00008778,
2941,0.98729342,-0.08056347,9.83757401,5.00000000,0.00644531,-0.01289062,-0.00230172,-0.00015333,-0.00247057,0.13476190,0.00000000,-0.00000895,0.00000000,0.00000000,-0.00783130,0.00000000,0.00000000,-0.00015145,-0.10406324,0.00000000,-0.00001104,
2949,1.01602387,-0.14760111,9.76095963,5.00000000,0.00644531,-0.01289062,-0.00110266,-0.00135241,-0.00047210,0.13476190,0.00000000,0.00000742,0.00000000,0.00000000,-0.00783130,0.00000000,0.00000000,-0.00135823,-0.10405499,0.00000000,-0.00009734,
2957,0.97292823,-0.13563012,9.83039188,5.00000000,0.00644531,-0.01289062,-0.00616543,-0.00055303,-0.00167118,0.13476190,0.00000000,-0.00000142,0.00000000,0.00000000,-0.00783130,0.00000000,0.00000000,-0.00054209,-0.10406546,0.00000000,-0.00003960,
2964,1.03038907,-0.11168809,9.80644989,4.00000000,0.00644531,-0.01289062,-0.00390051,-0.00215180,-0.00140472,0.13476190,0.00000000,-0.00000265,0.00000000,0.00000000,-0.00783130,0.00000000,0.00000000,-0.00213827,-0.10409258,0.00000000,-0.00015451,
2972,1.00644708,-0.17393734,9.88066959,4.00000000,0.00644531,-0.01289062,-0.00509958,-0.00135241,-0.00140472,0.13476190,0.00000000,-0.00000130,0.00000000,0.00000000,-0.00783130,0.00000000,0.00000000,-0.00136038,-0.10407161,0.00000000,-0.00009720,
2980,1.00165868,-0.17872573,9.95728397,4.00000000,0.00644531,-0.01289062,-0.00270143,-0.00574905,-0.00153795,0.13476190,0.00000000,0.00001176,0.00000000,0.00000000,-0.00783130,0.00000000,0.00000000,-0.00573161,-0.10388174,0.00000000,-0.00041305,
2988,0.93222678,-0.14760111,9.78490162,4.00000000,0.00644531,-0.01289062,-0.00270143,-0.00441673,-0.00007241,0.13476190,0.00000000,0.00000271,0.00000000,0.00000000,-0.00783130,0.00000000,0.00000000,-0.00442474,-0.10357031,0.00000000,-0.00031758,
2996,1.10700345,-0.19069675,9.77771950,4.00000000,0.00644531,-0.01289062,-0.00536604,-0.00388381,-0.00340319,0.13476190,0.00000000,-0.00000484,0.00000000,0.00000000,-0.00783130,0.00000000,0.00000000,-0.00389081,-0.10422810,0.00000000,-0.00027990,
3005,1.07587886,-0.14281271,9.72265244,5.00000000,0.00644531,-0.01289062,-0.00056973,-0.00481643,-0.00526843,0.13476190,0.00000000,0.00000097,0.00000000,0.00000000,-0.00783130,0.00000000,0.00000000,-0.00482722,-0.10461061,0.00000000,-0.00034818,
3013,1.03996587,-0.19787936,9.81842041,4.00000000,0.00644531,-0.01289062,-0.00203526,-0.00281796,-0.00420258,0.13476190,0.00000000,-0.00001056,0.00000000,0.00000000,-0.00783130,0.00000000,0.00000000,-0.00280552,-0.10468981,0.00000000,-0.00020102,
3021,1.00644708,-0.17872573,9.88066959,5.00000000,0.00644531,-0.01289062,-0.00243497,-0.00441673,-0.00473550,0.13476190,0.00000000,0.00000253,0.00000000,0.00000000,-0.00783130,0.00000000,0.00000000,-0.00443022,-0.10474756,0.00000000,-0.00031725,
3029,1.00884128,-0.19069675,9.83278561,4.00000000,0.00644531,-0.01289062,-0.00496636,-0.00441673,-0.00446904,0.13476190,0.00000000,-0.00000227,0.00000000,0.00000000,-0.00783130,0.00000000,0.00000000,-0.00441339,-0.10468709,0.00000000,-0.00031917,
3036,1.01602387,-0.11168809,9.79447842,4.00000000,0.00644531,-0.01289062,-0.00376728,-0.00295119,-0.00366965,0.13476190,0.00000000,0.00001320,0.00000000,0.00000000,-0.00783130,0.00000000,0.00000000,-0.00293932,-0.10471874,0.00000000,-0.00021207,
3044,1.00644708,-0.12844750,9.88066959,4.00000000,0.00644531,-0.01289062,-0.00483312,-0.00428350,-0.00580135,0.13476190,0.00000000,-0.00000525,0.00000000,0.00000000,-0.00783130,0.00000000,0.00000000,-0.00427733,-0.10454848,0.00000000,-0.00030761,
3052,1.03517747,-0.16196632,9.84954548,4.00000000,0.00644531,-0.01289062,-0.00216851,-0.00415028,-0.00380288,0.13476190,0.00000000,0.00001437,0.00000000,0.00000000,-0.00783130,0.00000000,0.00000000,-0.00414148,-0.10458805,0.00000000,-0.00029839,
3061,1.03278327,-0.11647650,9.84475708,5.00000000,0.00644531,-0.01289062,-0.00283465,-0.00681490,-0.00566812,0.13476190,0.00000000,0.00000792,0.00000000,0.00000000,-0.00783130,0.00000000,0.00000000,-0.00680470,-0.10461357,0.00000000,-0.00049066,
3068,1.05193686,-0.09971709,9.88306427,4.00000000,0.00644531,-0.01289062,-0.00110266,-0.00468320,-0.00486873,0.13476190,0.00000000,0.00000015,0.00000000,0.00000000,-0.00783130,0.00000000,0.00000000,-0.00467948,-0.10471261,0.00000000,-0.00033701,
3076,1.06869626,-0.10929389,9.75617123,4.00000000,0.00644531,-0.01289062,-0.00283465,-0.00468320,-0.00393611,0.13476190,0.00000000,-0.00000824,0.00000000,0.00000000,-0.00783130,0.00000000,0.00000000,-0.00466626,-0.10480327,0.00000000,-0.00033658,
3084,1.02320647,-0.11168809,9.82320881,4.00000000,0.00644531,-0.01289062,-0.00363405,-0.00534935,-0.00553489,0.13476190,0.00000000,-0.00000486,0.00000000,0.00000000,-0.00783130,0.00000000,0.00000000,-0.00534278,-0.10485331,0.00000000,-0.00038501,
3093,1.02560067,-0.12365910,9.81123829,5.00000000,0.00644531,-0.01289062,-0.00243497,-0.00361735,-0.00007241,0.13476190,0.00000000,0.00000306,0.00000000,0.00000000,-0.00783130,0.00000000,0.00000000,-0.00362142,-0.10492910,0.00000000,-0.00026077,
3100,1.01602387,-0.05901565,9.81363201,4.00000000,0.00644531,-0.01289062,-0.00270143,-0.00135241,-0.00193765,0.13476190,0.00000000,-0.00000008,0.00000000,0.00000000,-0.00783130,0.00000000,0.00000000,-0.00134716,-0.10498442,0.00000000,-0.00009672,
3108,1.03996587,-0.05901565,9.81602669,4.00000000,0.00644531,-0.01289062,-0.00563250,0.00011313,-0.00153795,0.13476190,0.00000000,0.00000208,0.00000000,0.00000000,-0.00783130,0.00000000,0.00000000,0.00010749,-0.10499734,0.00000000,0.00000725,
3116,1.13333976,-0.12365910,9.83757401,4.00000000,0.00644531,-0.01289062,-0.00216851,0.00011313,-0.00060533,0.13476190,0.00000000,0.00000260,0.00000000,0.00000000,-0.00783130,0.00000000,0.00000000,0.00010653,-0.10510381,0.00000000,0.00000772,
3124,1.09742665,-0.11887070,9.82560349,4.00000000,0.00644531,-0.01289062,-0.00336757,0.00117898,-0.00193765,0.13476190,0.00000000,0.00000934,0.00000000,0.00000000,-0.00783130,0.00000000,0.00000000,0.00117205,-0.10518671,0.00000000,0.00008358,
3132,0.99926442,-0.09492868,9.83278561,4.00000000,0.00644531,-0.01289062,-0.00363405,0.00264452,-0.00207088,0.13476190,0.00000000,0.00000523,0.00000000,0.00000000,-0.00783130,0.00000000,0.00000000,0.00265895,-0.10506532,0.00000000,0.00019147,
3140,1.03996587,-0.14999533,9.82320881,4.00000000,0.00644531,-0.01289062,-0.00256820,0.00224483,-0.00167118,0.13476190,0.00000000,0.00000180,0.00000000,0.00000000,-0.00783130,0.00000000,0.00000000,0.00223605,-0.10506508,0.00000000,0.00016030,
3149,0.98729342,-0.19309095,9.80884361,5.00000000,0.00644531,-0.01289062,-0.00323436,0.00211160,-0.00446904,0.13476190,0.00000000,-0.00000323,0.00000000,0.00000000,-0.00783130,0.00000000,0.00000000,0.00210281,-0.10508234,0.00000000,0.00015192,
3157,0.99208182,-0.18111995,9.78490162,5.00000000,0.00644531,-0.01289062,-0.00350082,0.00224483,-0.00313673,0.13476190,0.00000000,-0.00000405,0.00000000,0.00000000,-0.00783130,0.00000000,0.00000000,0.00225051,-0.10497554,0.00000000,0.00016295,
3165,0.99926442,-0.16436052,9.75138283,5.00000000,0.00644531,-0.01289062,-0.00216851,0.00077928,-0.00140472,0.13476190,0.00000000,-0.00000105,0.00000000,0.00000000,-0.00783130,0.00000000,0.00000000,0.00079207,-0.10493319,0.00000000,0.00005656,
3173,0.95616877,-0.16436052,9.90221786,5.00000000,0.00644531,-0.01289062,-0.00190204,0.00171190,-0.00180442,0.13476190,0.00000000,-0.00000132,0.00000000,0.00000000,-0.00783130,0.00000000,0.00000000,0.00171767,-0.10484987,0.00000000,0.00012324,
3180,1.06151366,-0.16675474,9.79687309,4.00000000,0.00644531,-0.01289062,-0.00363405,-0.00121919,-0.00433581,0.13476190,0.00000000,0.00001602,0.00000000,0.00000000,-0.00783130,0.00000000,0.00000000,-0.00123624,-0.10499943,0.00000000,-0.00008867,
3188,0.97771662,-0.11887070,9.77293110,4.00000000,0.00644531,-0.01289062,-0.00496636,-0.00415028,-0.00420258,0.13476190,0.00000000,-0.00000085,0.00000000,0.00000000,-0.00783130,0.00000000,0.00000000,-0.00414769,-0.10503466,0.00000000,-0.00029810,
3196,0.98011082,-0.18111995,9.90221786,4.00000000,0.00644531,-0.01289062,-0.00110266,-0.00534935,-0.00473550,0.13476190,0.00000000,0.00000590,0.00000000,0.00000000,-0.00783130,0.00000000,0.00000000,-0.00534181,-0.10480917,0.00000000,-0.00038544,
3204,1.01841807,-0.13323590,9.82320881,4.00000000,0.00644531,-0.01289062,-0.00110266,-0.00934629,-0.00540166,0.13476190,0.00000000,0.00000221,0.00000000,0.00000000,-0.00783130,0.00000000,0.00000000,-0.00934289,-0.10476070,0.00000000,-0.00067291,
3212,0.96574563,-0.14520691,9.80405521,4.00000000,0.00644531,-0.01289062,-0.00336757,-0.00481643,-0.00580135,0.13476190,0.00000000,0.00000633,0.00000000,0.00000000,-0.00783130,0.00000000,0.00000000,-0.00482098,-0.10445287,0.00000000,-0.00034646,
3221,0.98011082,-0.13802432,9.83278561,5.00000000,0.00644531,-0.01289062,-0.00443344,-0.00961275,-0.00553489,0.13476190,0.00000000,0.00000967,0.00000000,0.00000000,-0.00783130,0.00000000,0.00000000,-0.00962236,-0.10446353,0.00000000,-0.00069251,
3229,1.02560067,-0.10929389,9.83518028,5.00000000,0.00644531,-0.01289062,-0.00363405,-0.01001245,-0.00340319,0.13476190,0.00000000,-0.00000570,0.00000000,0.00000000,-0.00783130,0.00000000,0.00000000,-0.01002272,-0.10454892,0.00000000,-0.00072186,
3237,1.00405288,-0.11408229,9.79208469,5.00000000,0.00644531,-0.01289062,-0.00416696,-0.01147799,-0.00540166,0.13476190,0.00000000,0.00000524,0.00000000,0.00000000,-0.00783130,0.00000000,0.00000000,-0.01147698,-0.10461752,0.00000000,-0.00082673,
3245,1.02320647,-0.10689969,9.73222923,5.00000000,0.00644531,-0.01289062,-0.00576575,-0.01254384,-0.00540166,0.13476190,0.00000000,0.00000305,0.00000000,0.00000000,-0.00783130,0.00000000,0.00000000,-0.01253128,-0.10470842,0.00000000,-0.00090183,
3252,1.08784986,-0.13802432,9.69871044,4.00000000,0.00644531,-0.01289062,-0.00403374,-0.01281030,-0.00433581,0.13476190,0.00000000,0.00000085,0.00000000,0.00000000,-0.00783130,0.00000000,0.00000000,-0.01279786,-0.10480633,0.00000000,-0.00092163,
3260,1.03038907,-0.10211129,9.85672760,4.00000000,0.00644531,-0.01289062,-0.00416696,-0.01254384,-0.00460227,0.13476190,0.00000000,0.00000576,0.00000000,0.00000000,-0.00783130,0.00000000,0.00000000,-0.01253817,-0.10491125,0.00000000,-0.00090240,
3268,1.05193686,-0.09014028,9.78250790,4.00000000,0.00644531,-0.01289062,-0.00163557,-0.01161122,-0.00673397,0.13476190,0.00000000,-0.00000746,0.00000000,0.00000000,-0.00783130,0.00000000,0.00000000,-0.01161735,-0.10506298,0.00000000,-0.00083725,
3276,1.08306146,-0.05183305,9.80405521,4.00000000,0.00644531,-0.01289062,-0.00416696,-0.00481643,-0.00526843,0.13476190,0.00000000,-0.00001390,0.00000000,0.00000000,-0.00783130,0.00000000,0.00000000,-0.00483405,-0.10547031,0.00000000,-0.00034759,
3284,1.14291656,0.01041619,9.81842041,4.00000000,0.00644531,-0.01289062,-0.00056973,-0.00668167,-0.00313673,0.13476190,0.00000000,0.00000431,0.00000000,0.00000000,-0.00783130,0.00000000,0.00000000,-0.00669136,-0.10607688,0.00000000,-0.00048080,
3293,1.13094556,-0.12365910,9.74898911,5.00000000,0.00644531,-0.01289062,-0.00469989,-0.00215180,-0.00233734,0.13476190,0.00000000,-0.00000177,0.00000000,0.00000000,-0.00783130,0.00000000,0.00000000,-0.00214853,-0.10642449,0.00000000,-0.00015554,
3301,1.14291656,-0.09014028,9.86391068,5.00000000,0.00644531,-0.01289062,-0.00390051,0.00197836,-0.00273703,0.13476190,0.00000000,0.00000162,0.00000000,0.00000000,-0.00783130,0.00000000,0.00000000,0.00198236,-0.10704559,0.00000000,0.00014242,
3309,1.18361795,-0.09014028,9.81842041,5.00000000,0.00644531,-0.01289062,-0.00443344,0.00637500,0.00245899,0.13476190,0.00000000,0.00001568,0.00000000,0.00000000,-0.00783130,0.00000000,0.00000000,0.00635976,-0.10716327,0.00000000,0.00045842,
3317,1.09503245,-0.10929389,9.82560349,4.00000000,0.00644531,-0.01289062,-0.00430019,0.00797377,0.00179283,0.13476190,0.00000000,-0.00000352,0.00000000,0.00000000,-0.00783130,0.00000000,0.00000000,0.00797759,-0.10719977,0.00000000,0.00057365,
3324,1.07109046,-0.07338087,9.86391068,4.00000000,0.00644531,-0.01289062,-0.00416696,0.00637500,0.00139313,0.13476190,0.00000000,-0.00000361,0.00000000,0.00000000,-0.00783130,0.00000000,0.00000000,0.00637146,-0.10713290,0.00000000,0.00045856,
3332,1.10460925,-0.13323590,9.86391068,4.00000000,0.00644531,-0.01289062,-0.00296789,0.00664146,0.00072698,0.13476190,0.00000000,-0.00001325,0.00000000,0.00000000,-0.00783130,0.00000000,0.00000000,0.00665032,-0.10711467,0.00000000,0.00047861,
3340,1.06390786,-0.15238953,9.79447842,4.00000000,0.00644531,-0.01289062,-0.00310113,0.01037193,0.00032728,0.13476190,0.00000000,-0.00000997,0.00000000,0.00000000,-0.00783130,0.00000000,0.00000000,0.01037128,-0.10712005,0.00000000,0.00074632,
3348,1.05911946,-0.14999533,9.75617123,4.00000000,0.00644531,-0.01289062,-0.00123588,0.00757408,-0.00406935,0.13476190,0.00000000,0.00000410,0.00000000,0.00000000,-0.00783130,0.00000000,0.00000000,0.00757286,-0.10703291,0.00000000,0.00054679,
3356,1.13094556,-0.14281271,9.80166149,4.00000000,0.00644531,-0.01289062,-0.00296789,0.01183748,-0.00247057,0.13476190,0.00000000,-0.00001057,0.00000000,0.00000000,-0.00783130,0.00000000,0.00000000,0.01184007,-0.10729825,0.00000000,0.00085226,
3365,1.02560067,-0.15478373,9.82799721,5.00000000,0.00644531,-0.01289062,-0.00123588,0.00930608,-0.00167118,0.13476190,0.00000000,-0.00000022,0.00000000,0.00000000,-0.00783130,0.00000000,0.00000000,0.00929811,-0.10713004,0.00000000,0.00067046,
3373,1.07587886,-0.16675474,9.80405521,5.00000000,0.00644531,-0.01289062,-0.00176881,0.01117132,-0.00526843,0.13476190,0.00000000,0.00000091,0.00000000,0.00000000,-0.00783130,0.00000000,0.00000000,0.01117634,-0.10714139,0.00000000,0.00080420,
3381,1.01841807,-0.14760111,9.73222923,5.00000000,0.00644531,-0.01289062,-0.00296789,0.01223717,-0.00273703,0.13476190,0.00000000,-0.00000029,0.00000000,0.00000000,-0.00783130,0.00000000,0.00000000,0.01222957,-0.10696287,0.00000000,0.00088237,
3388,1.02560067,-0.09971709,9.77771950,4.00000000,0.00644531,-0.01289062,0.00022966,0.01090486,-0.00580135,0.13476190,0.00000000,-0.00001295,0.00000000,0.00000000,-0.00783130,0.00000000,0.00000000,0.01092706,-0.10686908,0.00000000,0.00078505,
3396,0.97771662,-0.16196632,9.80405521,4.00000000,0.00644531,-0.01289062,-0.00203526,0.00664146,-0.00740013,0.13476190,0.00000000,0.00002130,0.00000000,0.00000000,-0.00783130,0.00000000,0.00000000,0.00664589,-0.10639962,0.00000000,0.00047914,
3404,1.09263825,-0.08774608,9.85672760,4.00000000,0.00644531,-0.01289062,-0.00230172,0.00784054,-0.00406935,0.13476190,0.00000000,0.00000547,0.00000000,0.00000000,-0.00783130,0.00000000,0.00000000,0.00783325,-0.10640302,0.00000000,0.00056378,
3413,1.03278327,-0.18830255,9.87348747,5.00000000,0.00644531,-0.01289062,-0.00176881,0.00584207,-0.00700043,0.13476190,0.00000000,0.00000655,0.00000000,0.00000000,-0.00783130,0.00000000,0.00000000,0.00584505,-0.10623040,0.00000000,0.00041984,
3420,1.08545566,-0.10929389,9.78729630,4.00000000,0.00644531,-0.01289062,-0.00270143,0.00917285,-0.00420258,0.13476190,0.00000000,-0.00000713,0.00000000,0.00000000,-0.00783130,0.00000000,0.00000000,0.00917404,-0.10639034,0.00000000,0.00066027,
3428,0.99926442,-0.14041851,9.83757401,4.00000000,0.00644531,-0.01289062,-0.00483312,0.00131221,-0.00460227,0.13476190,0.00000000,-0.00000749,0.00000000,0.00000000,-0.00783130,0.00000000,0.00000000,0.00130882,-0.10632977,0.00000000,0.00009527,
3437,1.02320647,-0.07816927,9.81602669,5.00000000,0.00644531,-0.01289062,-0.00270143,0.00251129,-0.00473550,0.13476190,0.00000000,0.00001356,0.00000000,0.00000000,-0.00783130,0.00000000,0.00000000,0.00249883,-0.10627571,0.00000000,0.00018124,
3445,1.02799487,-0.13563012,9.86630440,5.00000000,0.00644531,-0.01289062,-0.00363405,0.00051282,-0.00340319,0.13476190,0.00000000,0.00000492,0.00000000,0.00000000,-0.00783130,0.00000000,0.00000000,0.00051094,-0.10612505,0.00000000,0.00003692,
3453,1.04954267,-0.07816927,9.85912228,5.00000000,0.00644531,-0.01289062,-0.00230172,0.00051282,-0.00233734,0.13476190,0.00000000,-0.00000348,0.00000000,0.00000000,-0.00783130,0.00000000,0.00000000,0.00050710,-0.10611636,0.00000000,0.00003737,
3461,1.02799487,-0.14520691,9.87348747,5.00000000,0.00644531,-0.01289062,-0.00296789,0.00037959,-0.00087180,0.13476190,0.00000000,-0.00001406,0.00000000,0.00000000,-0.00783130,0.00000000,0.00000000,0.00038643,-0.10604791,0.00000000,0.00002752,
3469,1.03996587,-0.03507364,9.74659443,5.00000000,0.00644531,-0.01289062,-0.00430019,-0.00148565,-0.00207088,0.13476190,0.00000000,-0.00001069,0.00000000,0.00000000,-0.00783130,0.00000000,0.00000000,-0.00148084,-0.10605787,0.00000000,-0.00010762,
3476,1.02081227,-0.20506196,9.87827587,4.00000000,0.00644531,-0.01289062,-0.00496636,-0.00454997,-0.00087180,0.13476190,0.00000000,-0.00000213,0.00000000,0.00000000,-0.00783130,0.00000000,0.00000000,-0.00455668,-0.10602891,0.00000000,-0.00032779,
3484,1.03996587,-0.12365910,9.80166149,4.00000000,0.00644531,-0.01289062,-0.00416696,-0.00348412,-0.00260380,0.13476190,0.00000000,-0.00001669,0.00000000,0.00000000,-0.00783130,0.00000000,0.00000000,-0.00349776,-0.10603815,0.00000000,-0.00025156,
3492,1.04714847,-0.07816927,9.75377750,4.00000000,0.00644531,-0.01289062,-0.00110266,-0.00708136,-0.00087180,0.13476190,0.00000000,0.00000397,0.00000000,0.00000000,-0.00783130,0.00000000,0.00000000,-0.00707205,-0.10608130,0.00000000,-0.00050937,
3500,1.04475427,-0.13563012,9.73222923,4.00000000,0.00644531,-0.01289062,-0.00296789,-0.00854690,-0.00247057,0.13476190,0.00000000,-0.00000081,0.00000000,0.00000000,-0.00783130,0.00000000,0.00000000,-0.00854234,-0.10618451,0.00000000,-0.00061515,
3509,1.04475427,-0.12605330,9.82320881,5.00000000,0.00644531,-0.01289062,-0.00230172,-0.00814721,-0.00113826,0.13476190,0.00000000,-0.00000146,0.00000000,0.00000000,-0.00783130,0.00000000,0.00000000,-0.00812402,-0.10625394,0.00000000,-0.00058532,
3517,1.03278327,-0.17154314,9.84236240,5.00000000,0.00644531,-0.01289062,-0.00443344,-0.00428350,-0.00207088,0.13476190,0.00000000,-0.00000189,0.00000000,0.00000000,-0.00783130,0.00000000,0.00000000,-0.00429439,-0.10630365,0.00000000,-0.00030885,
3525,1.03517747,-0.14281271,9.85912228,5.00000000,0.00644531,-0.01289062,-0.00310113,-0.00788074,-0.00460227,0.13476190,0.00000000,-0.00000359,0.00000000,0.00000000,-0.00783130,0.00000000,0.00000000,-0.00786830,-0.10625027,0.00000000,-0.00056711,
3533,1.09742665,-0.12605330,9.77771950,5.00000000,0.00644531,-0.01289062,-0.00669836,-0.00801398,-0.00340319,0.13476190,0.00000000,-0.00000449,0.00000000,0.00000000,-0.00783130,0.00000000,0.00000000,-0.00801981,-0.10663112,0.00000000,-0.00057583,
3540,1.02799487,-0.18111995,9.82081509,4.00000000,0.00644531,-0.01289062,-0.00376728,-0.00574905,-0.00473550,0.13476190,0.00000000,-0.00000517,0.00000000,0.00000000,-0.00783130,0.00000000,0.00000000,-0.00575664,-0.10663666,0.00000000,-0.00041290,
3548,1.04475427,-0.12844750,9.85433388,4.00000000,0.00644531,-0.01289062,-0.00190204,-0.00761428,-0.00526843,0.13476190,0.00000000,0.00000602,0.00000000,0.00000000,-0.00783130,0.00000000,0.00000000,-0.00762085,-0.10664280,0.00000000,-0.00054910,
3556,1.05911946,-0.14281271,9.77053642,4.00000000,0.00644531,-0.01289062,-0.00203526,-0.00694813,-0.00366965,0.13476190,0.00000000,-0.00000468,0.00000000,0.00000000,-0.00783130,0.00000000,0.00000000,-0.00695498,-0.10675650,0.00000000,-0.00050054,
3564,1.04475427,-0.20027356,9.74180603,4.00000000,0.00644531,-0.01289062,-0.00190204,-0.00361735,-0.00540166,0.13476190,0.00000000,-0.00000241,0.00000000,0.00000000,-0.00783130,0.00000000,0.00000000,-0.00361431,-0.10681221,0.00000000,-0.00026001,
3572,1.09263825,-0.10929389,9.87827587,4.00000000,0.00644531,-0.01289062,-0.00163557,-0.00468320,-0.00406935,0.13476190,0.00000000,0.00000488,0.00000000,0.00000000,-0.00783130,0.00000000,0.00000000,-0.00467266,-0.10692534,0.00000000,-0.00033587,
3581,1.04714847,-0.11408229,9.74898911,5.00000000,0.00644531,-0.01289062,-0.00390051,-0.00281796,-0.00326996,0.13476190,0.00000000,-0.00000237,0.00000000,0.00000000,-0.00783130,0.00000000,0.00000000,-0.00282131,-0.10696224,0.00000000,-0.00020355,
3589,1.07348466,-0.13323590,9.76095963,5.00000000,0.00644531,-0.01289062,-0.00416696,-0.00441673,-0.00513520,0.13476190,0.00000000,0.00000528,0.00000000,0.00000000,-0.00783130,0.00000000,0.00000000,-0.00438617,-0.10699358,0.00000000,-0.00031667,
3597,1.08784986,-0.14041851,9.81363201,5.00000000,0.00644531,-0.01289062,-0.00230172,-0.00681490,-0.00260380,0.13476190,0.00000000,0.00000126,0.00000000,0.00000000,-0.00783130,0.00000000,0.00000000,-0.00681701,-0.10705359,0.00000000,-0.00049021,
3605,1.00644708,-0.18111995,9.81123829,5.00000000,0.00644531,-0.01289062,-0.00363405,-0.00201857,-0.00313673,0.13476190,0.00000000,-0.00000290,0.00000000,0.00000000,-0.00783130,0.00000000,0.00000000,-0.00202148,-0.10694915,0.00000000,-0.00014581,
3612,1.02560067,-0.10929389,9.84475708,4.00000000,0.00644531,-0.01289062,-0.00150234,-0.00295119,-0.00326996,0.13476190,0.00000000,-0.00000250,0.00000000,0.00000000,-0.00783130,0.00000000,0.00000000,-0.00295441,-0.10697676,0.00000000,-0.00021292,
3620,1.02560067,-0.09492868,9.78729630,4.00000000,0.00644531,-0.01289062,-0.00456667,0.00077928,-0.00380288,0.13476190,0.00000000,0.00000018,0.00000000,0.00000000,-0.00783130,0.00000000,0.00000000,0.00079537,-0.10689873,0.00000000,0.00005649,
3628,1.00644708,-0.09253448,9.80644989,4.00000000,0.00644531,-0.01289062,-0.00350082,0.00037959,-0.00406935,0.13476190,0.00000000,0.00000210,0.00000000,0.00000000,-0.00783130,0.00000000,0.00000000,0.00037408,-0.10679623,0.00000000,0.00002806,
3636,1.08066726,-0.13323590,9.88066959,4.00000000,0.00644531,-0.01289062,-0.00336757,-0.00175211,-0.00406935,0.13476190,0.00000000,-0.00000493,0.00000000,0.00000000,-0.00783130,0.00000000,0.00000000,-0.00176369,-0.10690612,0.00000000,-0.00012670,
3644,1.06151366,-0.07577506,9.87588120,4.00000000,0.00644531,-0.01289062,-0.00243497,0.00184513,-0.00087180,0.13476190,0.00000000,0.00001103,0.00000000,0.00000000,-0.00783130,0.00000000,0.00000000,0.00185721,-0.10692697,0.00000000,0.00013388,
3653,1.10460925,-0.17633153,9.81123829,4.00000000,0.00644531,-0.01289062,-0.00256820,0.00064605,-0.00127149,0.13476190,0.00000000,0.00001523,0.00000000,0.00000000,-0.00783130,0.00000000,0.00000000,0.00061920,-0.10696710,0.00000000,0.00004563,
3660,1.08545566,-0.06619826,9.80166149,4.00000000,0.00644531,-0.01289062,-0.00110266,-0.00028657,-0.00313673,0.13476190,0.00000000,0.00000718,0.00000000,0.00000000,-0.00783130,0.00000000,0.00000000,-0.00028869,-0.10704166,0.00000000,-0.00002091,
3669,1.03038907,-0.03028524,9.83039188,5.00000000,0.00644531,-0.01289062,-0.00829715,0.00184513,-0.00020564,0.13476190,0.00000000,-0.00001116,0.00000000,0.00000000,-0.00783130,0.00000000,0.00000000,0.00184050,-0.10700773,0.00000000,0.00013238,
3676,1.14291656,-0.11168809,9.74898911,4.00000000,0.00644531,-0.01289062,-0.00230172,0.00077928,-0.00353642,0.13476190,0.00000000,0.00000563,0.00000000,0.00000000,-0.00783130,0.00000000,0.00000000,0.00077313,-0.10753100,0.00000000,0.00005583,
3684,1.08784986,-0.14520691,9.76814270,4.00000000,0.00644531,-0.01289062,-0.00430019,0.00037959,0.00059375,0.13476190,0.00000000,0.00000271,0.00000000,0.00000000,-0.00783130,0.00000000,0.00000000,0.00037915,-0.10760422,0.00000000,0.00002737,
3692,1.15009916,-0.13084170,9.84715080,4.00000000,0.00644531,-0.01289062,-0.00430019,0.00450976,0.00019405,0.13476190,0.00000000,0.00000367,0.00000000,0.00000000,-0.00783130,0.00000000,0.00000000,0.00450486,-0.10744942,0.00000000,0.00032467,
3700,1.06630206,-0.20266776,9.80405521,4.00000000,0.00644531,-0.01289062,-0.00256820,0.00131221,-0.00273703,0.13476190,0.00000000,-0.00000933,0.00000000,0.00000000,-0.00783130,0.00000000,0.00000000,0.00132172,-0.10747368,0.00000000,0.00009538,
3708,1.03517747,-0.17872573,9.76335430,4.00000000,0.00644531,-0.01289062,-0.00136911,0.00224483,-0.00313673,0.13476190,0.00000000,0.00000019,0.00000000,0.00000000,-0.00783130,0.00000000,0.00000000,0.00224904,-0.10740712,0.00000000,0.00016092,
3716,1.09982085,-0.19548516,9.78729630,4.00000000,0.00644531,-0.01289062,-0.00243497,0.00490945,-0.00366965,0.13476190,0.00000000,-0.00000856,0.00000000,0.00000000,-0.00783130,0.00000000,0.00000000,0.00491837,-0.10755764,0.00000000,0.00035330,
3725,1.10221505,-0.19309095,9.82320881,5.00000000,0.00644531,-0.01289062,-0.00629868,0.00371037,-0.00273703,0.13476190,0.00000000,0.00000324,0.00000000,0.00000000,-0.00783130,0.00000000,0.00000000,0.00369684,-0.10761029,0.00000000,0.00026711,
3733,1.11658037,-0.11168809,9.84475708,5.00000000,0.00644531,-0.01289062,-0.00296789,0.00584207,-0.00287026,0.13476190,0.00000000,-0.00000348,0.00000000,0.00000000,-0.00783130,0.00000000,0.00000000,0.00584154,-0.10787921,0.00000000,0.00042068,
3741,1.03038907,-0.15957212,9.82081509,5.00000000,0.00644531,-0.01289062,-0.00163557,0.00091251,-0.00313673,0.13476190,0.00000000,0.00000625,0.00000000,0.00000000,-0.00783130,0.00000000,0.00000000,0.00091832,-0.10777070,0.00000000,0.00006641,
3749,1.09982085,-0.15478373,9.84236240,5.00000000,0.00644531,-0.01289062,-0.00363405,0.00411006,-0.00247057,0.13476190,0.00000000,0.00000418,0.00000000,0.00000000,-0.00783130,0.00000000,0.00000000,0.00410262,-0.10794871,0.00000000,0.00029543,
3758,1.02320647,-0.10211129,9.84475708,6.00000000,0.00000000,0.00000000,-0.00363405,0.00664146,-0.00380288,0.13476190,0.00766789,-0.00001055,-0.13211258,0.13430244,-0.00783130,0.00000000,0.00000000,0.00664658,-0.10780249,0.00244212,0.00047802,
3766,1.81808138,-0.22660978,10.03389835,6.00000000,-0.19335937,0.23041992,-0.00563250,0.00064605,0.00232575,0.13476190,0.00766789,-0.06585809,-0.14162336,0.14221916,-0.00783130,-0.54105204,0.76619959,0.00071339,-0.10765136,0.00244212,-0.04701164,
3774,-1.91687322,-0.51151979,12.48077297,6.00000000,-0.21752930,0.25781250,-0.09489745,0.44164145,-0.07774622,0.13476190,0.00766789,-0.14455597,-0.07615888,0.07340926,-0.00783130,-0.94073248,1.43466055,0.44157410,-0.10867031,0.00244212,-0.05371816,
3782,-0.60724491,0.97527945,9.68434525,6.00000000,-0.11601563,0.14824219,-0.07411337,0.58220047,-0.14476155,0.13476190,0.00766789,-0.05718102,-0.05001461,0.04937823,-0.00783130,-1.82386911,2.01934600,0.58215976,-0.10118596,0.00244212,-0.09643726,
3789,1.76780319,0.47010291,7.93897200,5.00000000,-0.07089844,0.09023438,0.17169827,0.67839342,-0.15968345,0.13476190,0.00766789,-0.04493096,-0.03032347,0.02970071,-0.00783130,-2.01061916,2.16420817,0.67842835,-0.09721910,0.00244212,-0.10144570,
3798,0.99926442,-1.11485863,8.68117428,6.00000000,-0.05800781,0.05961914,0.13918985,0.73928005,-0.12557624,0.13476190,0.01150183,-0.08427973,-0.01469869,0.01257068,-0.00783130,-1.97047675,2.25845599,0.73934716,-0.09247610,0.00244212,-0.09900787,
3806,1.92821467,-1.00472534,8.72426987,6.00000000,-0.02255859,0.02900391,-0.07517923,0.72808868,-0.10332662,0.13476190,0.01150183,-0.09347449,-0.01297869,0.01053309,-0.00783130,-1.78721714,2.10661244,0.72812504,-0.09115778,0.00244212,-0.08775534,
3814,0.82209349,0.11576107,10.64681435,6.00000000,-0.02255859,0.01450195,-0.11461568,0.62616682,-0.01552723,0.13476190,0.01150183,-0.13338313,-0.02172969,0.01829474,-0.00783130,-1.60221231,2.05774331,0.62604266,-0.08541195,0.00244212,-0.08667884,
3822,0.62576896,0.07266544,10.76413059,6.00000000,-0.03867187,0.04189453,-0.07038288,0.60378391,0.00192606,0.13476190,0.01150183,-0.07968681,-0.01538143,0.01331696,-0.00783130,-1.45211387,1.72438538,0.60369462,-0.08053521,0.00244212,-0.07088436,
3830,0.66886461,0.27856678,11.18790436,6.00000000,-0.02578125,0.03544922,0.00542568,0.43737805,-0.03364668,0.13476190,0.01150183,0.00101297,-0.03448041,0.03503573,-0.00783130,-1.47305787,1.46956718,0.43735397,-0.07572134,0.00244212,-0.07444576,
3838,1.06390786,-0.53306758,10.17755032,6.00000000,-0.04833984,0.05639648,0.08483151,0.36250216,-0.02178910,0.13476190,0.01150183,-0.03065870,-0.04448118,0.04431707,-0.00783130,-1.39277279,1.49749255,0.36248621,-0.07364596,0.00244212,-0.07795069,
3846,0.03440114,-0.39659810,10.56780529,6.00000000,-0.06606445,0.08217774,-0.01256055,0.41832602,-0.06642157,0.13476190,0.01150183,0.01331333,-0.02617485,0.02692791,-0.00783130,-1.49225652,1.44687796,0.41830936,-0.06719530,0.00244212,-0.07569326,
3854,1.00165868,0.44855511,8.35556316,6.00000000,-0.04672851,0.05961914,0.01488509,0.46868744,-0.03697747,0.13476190,0.01150183,-0.02042644,-0.01454098,0.01412268,-0.00783130,-1.41895270,1.48876595,0.46869832,-0.06460670,0.00244212,-0.07093168,
3861,0.75745004,0.28574938,8.13050842,5.00000000,-0.02578125,0.03383789,0.07137515,0.42405492,0.01071932,0.13476190,0.01150183,0.01787898,-0.01654621,0.01723845,-0.00783130,-1.40149939,1.34041297,0.42410293,-0.06161050,0.00244212,-0.06817391,
3870,0.99687022,-0.41575170,8.54231071,6.00000000,-0.02255859,0.02416992,-0.02508427,0.42019129,0.01618180,0.13476190,0.01150183,0.00562563,-0.01114028,0.01135921,-0.00783130,-1.20078659,1.18158782,0.42019123,-0.05852094,0.00244212,-0.05551001,
3878,0.30255175,-0.33674306,10.13206100,6.00000000,-0.01611328,0.02094727,-0.08330634,0.40327084,0.04802407,0.13476190,0.01150183,-0.04797921,-0.00969589,0.00835832,-0.00783130,-1.04196155,1.20602250,0.40320620,-0.05530348,0.00244212,-0.05189380,
3886,0.54436612,-0.03986204,10.44809532,6.00000000,-0.01611328,0.01933594,-0.07837677,0.38621730,0.01418333,0.13476190,0.00766789,0.00101598,-0.00572171,0.00578691,-0.00783130,-0.97389370,0.97040302,0.38619995,-0.05207844,0.00244212,-0.04218763,
3894,0.60900956,0.47728553,10.81201458,6.00000000,-0.01450195,0.01611328,0.06191573,0.27270427,0.04575914,0.13476190,0.00766789,0.05005930,-0.01831390,0.01997448,-0.00783130,-0.89011794,0.71907568,0.27270636,-0.04918514,0.00244212,-0.03829601,
3902,0.39831981,-0.18351415,11.14001942,6.00000000,-0.03061523,0.04350586,0.06471358,0.16065678,0.01178517,0.13476190,0.00766789,0.05620258,-0.03152870,0.03357754,-0.00783130,-0.72082096,0.52883476,0.16067067,-0.04659468,0.00244212,-0.03341972,
