TimeStamp,acc_x,acc_y,acc_z,cal_time,current_LW,current_RW,gyr_x,gyr_y,gyr_z,h_d,psi_dot_d,psi_dot_hat,tau_LW,tau_RW,theta_d,theta_dot_LW,theta_dot_RW,theta_dot_hat,theta_hat,v_d,v_hat,
14,2.52915931,-0.58095163,8.78652000,6.00000000,0.00161133,0.00322266,-0.07904293,0.39088038,-0.03351345,0.07000000,0.01150183,-0.09807613,-0.21031569,0.21011439,-0.01229746,0.01745329,0.31764993,0.39083883,-0.25567624,0.00244212,0.01733137,
22,3.53951240,-0.27688801,8.51118660,6.00000000,-0.29970703,0.36254883,-0.07291430,0.43204886,-0.01099737,0.07000000,0.01150183,-0.20236015,-0.22287385,0.22000520,-0.01229746,-0.97040302,1.66155338,0.43218020,-0.25812811,0.00244212,-0.06362424,
29,-2.75723815,-1.62721777,14.29078960,5.00000000,-0.33354491,0.38510743,-0.24824661,1.10912991,-0.04936797,0.07000000,0.01150183,-0.30021104,-0.15099752,0.14454518,-0.01229746,-2.26718259,3.29343629,1.10890913,-0.25630140,0.00244212,-0.12034571,
38,-2.13713980,-0.41096330,11.92052937,6.00000000,-0.22558594,0.25781250,-0.38614094,1.59235966,-0.08787180,0.07000000,0.01150183,-0.44706768,-0.08300815,0.07162537,-0.01229746,-3.42084527,4.94800854,1.59197879,-0.23418614,0.00244212,-0.18663192,
46,-2.29036880,0.20195232,10.99157906,6.00000000,-0.12729493,0.13212891,-0.28435227,2.00004745,-0.13077226,0.07000000,0.01150183,-0.46228766,0.01785694,-0.03100002,-0.01229746,-3.70707917,5.28660202,1.99991381,-0.18578070,0.00244212,-0.17978102,
54,-0.24332625,-0.09971709,10.08657074,6.00000000,0.00966797,-0.04511719,-0.00683160,2.20775509,-0.14609385,0.07000000,0.01150183,-0.33305454,0.07489121,-0.08519343,-0.01229746,-3.44004416,4.57799864,2.20767856,-0.16490239,0.00244212,-0.12970671,
62,3.94652677,0.47967973,5.92544842,6.00000000,0.11440430,-0.14340821,0.16490348,1.83244240,-0.20871255,0.07000000,0.01150183,-0.16963366,0.04562575,-0.05096634,-0.01229746,-3.22362304,3.80307245,1.83276892,-0.15386267,0.00244212,-0.12100611,
70,2.15805817,-0.30801263,8.36513996,6.00000000,0.05800781,-0.09345703,0.12520057,1.42608702,-0.22416736,0.07000000,0.00766789,-0.10271489,0.01786015,-0.02092767,-0.01229746,-2.37015724,2.72096825,1.42626178,-0.14156845,0.00244212,-0.08058161,
78,3.03194165,-1.32315421,10.07220554,6.00000000,0.02739258,-0.03706055,0.04153135,1.00334442,-0.14183046,0.07000000,0.00766789,-0.18289870,-0.02571880,0.02090097,-0.01229746,-1.60744822,2.23227620,1.00347650,-0.13630651,0.00244212,-0.06598233,
86,1.55711341,-1.44765270,11.70265770,6.00000000,-0.03383789,0.03544922,-0.07437985,0.72595692,-0.07987793,0.07000000,0.00766789,-0.18182518,-0.04964634,0.04513817,-0.01229746,-1.22696650,1.84830368,0.72591573,-0.12883219,0.00244212,-0.05844475,
94,1.35360622,-0.72220951,12.53583908,6.00000000,-0.07895508,0.08056641,-0.17963254,0.55595392,-0.07188405,0.07000000,0.00766789,-0.21455525,-0.06609875,0.06088407,-0.01229746,-1.19031453,1.92335284,0.55586326,-0.12264577,0.00244212,-0.07206523,
101,0.94659197,-0.39899230,11.78406048,5.00000000,-0.10795899,0.11601563,-0.09609653,0.57394010,-0.11012142,0.07000000,0.00766789,-0.19922385,-0.05943829,0.05457163,-0.01229746,-1.26187313,1.94255149,0.57390112,-0.11828657,0.00244212,-0.07404093,
110,0.76223844,0.02956981,10.99157906,6.00000000,-0.08862305,0.09990235,0.00982231,0.52091408,-0.19072632,0.07000000,0.00766789,-0.16448669,-0.06177863,0.05794048,-0.01229746,-1.48702049,2.04901648,0.52090567,-0.11253125,0.00244212,-0.08979046,
118,0.33367637,0.21631753,9.98122597,6.00000000,-0.09023438,0.10795899,0.13292798,0.56048375,-0.28305557,0.07000000,0.00766789,-0.12004978,-0.05136017,0.04866628,-0.01229746,-1.85179436,2.26194692,0.56039959,-0.10493277,0.00244212,-0.10774154,
126,0.05355476,0.51798695,8.58780098,6.00000000,-0.08540039,0.09345703,0.18555433,0.73448372,-0.27119797,0.07000000,0.00766789,-0.07958575,-0.01968465,0.01770916,-0.01229746,-1.90589952,2.17817092,0.73442829,-0.09729817,0.00244212,-0.09414411,
134,0.36001259,-0.50673139,7.54392910,6.00000000,-0.03222656,0.03061523,0.16610256,0.69784516,-0.20751345,0.07000000,0.00766789,-0.17527185,-0.02117076,0.01650956,-0.01229746,-1.77325451,2.37190247,0.69785470,-0.09254521,0.00244212,-0.09897567,
142,0.94659197,-0.88740945,6.93819571,6.00000000,-0.02739258,0.03867187,-0.06332162,0.70650518,-0.15835114,0.07000000,0.01150183,-0.13486886,-0.01319369,0.00944516,-0.01229746,-1.69820547,2.15897226,0.70653081,-0.08820070,0.00244212,-0.08798905,
150,0.75505584,-0.43011692,7.90305901,6.00000000,-0.03061523,0.01772461,-0.06811798,0.64162159,-0.10026230,0.07000000,0.01150183,-0.22423974,-0.01368246,0.00738458,-0.01229746,-1.28456235,2.05076194,0.64167261,-0.08236904,0.00244212,-0.07387345,
158,1.08784986,-1.09331083,8.78173161,6.00000000,-0.02416992,0.01450195,-0.11221750,0.55568743,-0.09226844,0.07000000,0.01150183,-0.26718169,-0.01748934,0.01000299,-0.01229746,-0.97912967,1.89193690,0.55579466,-0.07736469,0.00244212,-0.06333892,
166,1.98328137,-0.02789103,9.68913364,6.00000000,-0.02739258,0.02255859,-0.19748554,0.45363227,-0.16527915,0.07000000,0.01150183,-0.15374127,-0.02570987,0.02152462,-0.01229746,-0.99483770,1.52018178,0.45366660,-0.07599877,0.00244212,-0.05787768,
173,1.67442930,1.42538941,10.99876213,5.00000000,-0.03383789,0.04028320,0.00009643,0.28043169,-0.17020871,0.07000000,0.01150183,-0.13942699,-0.04672618,0.04321472,-0.01229746,-0.90233523,1.37881017,0.28043002,-0.07588778,0.00244212,-0.06193221,
182,1.28178024,1.34398651,12.50950336,6.00000000,-0.06606445,0.06928711,0.07910256,0.19543011,-0.17473857,0.07000000,0.01150183,-0.11953904,-0.05778302,0.05498251,-0.01229746,-0.94422311,1.35263014,0.19540086,-0.07597107,0.00244212,-0.06861903,
190,0.74069065,0.26659578,12.55020428,6.00000000,-0.08378907,0.09990235,0.04286366,0.19716214,-0.16541238,0.07000000,0.01150183,-0.11493959,-0.05909699,0.05647019,-0.01229746,-1.22173047,1.61442959,0.19713493,-0.07445160,0.00244212,-0.08791045,
198,0.78378630,-0.26491702,11.35789204,6.00000000,-0.09184571,0.10151367,0.03287131,0.20768739,-0.12770794,0.07000000,0.01150183,-0.17416674,-0.05862754,0.05433512,-0.01229746,-1.29154360,1.88670087,0.20767824,-0.07259536,0.00244212,-0.09946415,
206,0.28818652,-1.07655144,10.34993362,6.00000000,-0.09345703,0.09829102,-0.05639362,0.20448984,-0.12077992,0.07000000,0.01150183,-0.22530767,-0.05847048,0.05274980,-0.01229746,-1.42593396,2.19562435,0.20447053,-0.06886864,0.00244212,-0.11565678,
214,-0.14755818,-0.35589665,9.13128471,6.00000000,-0.08701172,0.10634766,-0.14445949,0.30667824,-0.17833582,0.07000000,0.01150183,-0.20329961,-0.04322212,0.03793950,-0.01229746,-1.66678941,2.36143064,0.30666539,-0.06513952,0.00244212,-0.12293492,
222,0.07270838,0.78134912,7.43618965,6.00000000,-0.06928711,0.06928711,0.02287897,0.42005801,-0.19805405,0.07000000,0.01150183,-0.19717728,-0.02572120,0.02038437,-0.01229746,-1.74881983,2.42251706,0.42006069,-0.06194152,0.00244212,-0.11992336,
230,-0.23135525,-0.26970541,7.53435230,6.00000000,-0.04350586,0.03867187,0.12013778,0.46229231,-0.17673703,0.07000000,0.01150183,-0.21403888,-0.01477176,0.00880746,-0.01229746,-1.69122410,2.42251706,0.46234527,-0.05694185,0.00244212,-0.11480623,
238,0.53718352,-0.51151979,7.18958712,6.00000000,-0.01772461,0.01933594,-0.00549929,0.49213612,-0.20031898,0.07000000,0.01150183,-0.13587454,-0.00355766,-0.00036914,-0.01229746,-1.58824956,2.05250716,0.49213606,-0.05375684,0.00244212,-0.09563328,
245,1.24586725,-0.85149640,7.84080982,5.00000000,-0.00805664,-0.00644531,-0.01522516,0.35517442,-0.13290396,0.07000000,0.01150183,-0.17675319,-0.01837051,0.01347148,-0.01229746,-1.38928211,1.99316597,0.35522449,-0.05168746,0.00244212,-0.09619327,
254,0.82688189,-1.74692786,9.85672760,6.00000000,-0.03383789,0.02739258,-0.06585304,0.33838728,-0.07841238,0.07000000,0.01150183,-0.25440729,-0.01567479,0.00850734,-0.01229746,-0.90058988,1.76976395,0.33847126,-0.05003632,0.00244212,-0.07176296,
262,1.78216839,-0.48039517,10.62287235,6.00000000,-0.03061523,0.01772461,-0.18855900,0.18810241,-0.10812295,0.07000000,0.01150183,-0.20894341,-0.03472468,0.02908606,-0.01229746,-0.85695666,1.57079637,0.18812115,-0.05137043,0.00244212,-0.07385506,
270,1.76780319,0.09900165,11.72659969,6.00000000,-0.05639648,0.05156250,-0.11195105,-0.01520847,-0.13690090,0.07000000,0.01150183,-0.16958025,-0.06469049,0.06056248,-0.01229746,-0.88313657,1.46258593,-0.01520272,-0.05546156,0.00244212,-0.08553946,
278,0.92264998,0.22350015,12.75610638,6.00000000,-0.09345703,0.10312500,0.00742415,-0.06690219,-0.17673703,0.07000000,0.01150183,-0.19156717,-0.07360083,0.06898103,-0.01229746,-0.95993108,1.61442959,-0.06692171,-0.05588439,0.00244212,-0.09749520,
286,0.39113721,-0.33674306,12.54541588,6.00000000,-0.10151367,0.13212891,0.02634300,-0.03532638,-0.24388561,0.07000000,0.01150183,-0.09405856,-0.07066449,0.06879514,-0.01229746,-1.44513273,1.76627314,-0.03526731,-0.05475336,0.00244212,-0.11815265,
294,0.19481266,-0.00634322,11.43690109,6.00000000,-0.10795899,0.12246094,0.14638434,0.03235509,-0.23855634,0.07000000,0.01150183,-0.14555521,-0.06569794,0.06233775,-0.01229746,-1.68773329,2.18515205,0.03237812,-0.05403035,0.00244212,-0.13709317,
302,-0.02305970,-1.54102647,9.51435661,6.00000000,-0.10151367,0.11440430,0.10654819,0.17011619,-0.20644762,0.07000000,0.01150183,-0.20072860,-0.04968674,0.04457907,-0.01229746,-1.87448359,2.56039786,0.17005931,-0.05206733,0.00244212,-0.14741072,
310,-0.29839289,-0.66714287,7.74504185,6.00000000,-0.07412110,0.08378907,-0.08197401,0.28589416,-0.26426998,0.07000000,0.01150183,-0.12665212,-0.02878273,0.02550554,-0.01229746,-2.15897226,2.59181404,0.28580689,-0.04588604,0.00244212,-0.15045272,
317,-0.00869448,-0.10450549,7.03635836,5.00000000,-0.05156250,0.04511719,0.06364773,0.33971959,-0.17940167,0.07000000,0.01150183,-0.26312315,-0.02003382,0.01278533,-0.01229746,-2.00363803,2.90248251,0.33976835,-0.04160858,0.00244212,-0.15215844,
326,-0.02305970,-0.93768770,6.64370918,6.00000000,-0.03061523,0.03061523,0.00036289,0.45576403,-0.20338328,0.07000000,0.01150183,-0.18082304,0.00433997,-0.00962178,-0.01229746,-1.78372645,2.40157318,0.45571697,-0.03812339,0.00244212,-0.11786374,
334,0.96335143,-0.23858078,7.16085672,6.00000000,0.00644531,-0.01772461,-0.02908121,0.31373948,-0.20578146,0.07000000,0.01150183,-0.14761533,-0.00766294,0.00347388,-0.01229746,-1.78721714,2.29161739,0.31379223,-0.03292035,0.00244212,-0.12424116,
342,-0.10685676,-0.27928221,9.76095963,6.00000000,-0.01611328,0.01611328,0.02354513,0.28296307,-0.17127456,0.07000000,0.01150183,-0.20947194,-0.00387882,-0.00215921,-0.01229746,-1.19729578,1.91288078,0.28296325,-0.03015387,0.00244212,-0.09159213,
350,1.60499752,-0.21463877,10.37387562,6.00000000,-0.00966797,-0.00161133,-0.04879944,0.12894773,-0.14169721,0.07000000,0.01150183,-0.14301582,-0.02136063,0.01741984,-0.01229746,-1.14668131,1.63537347,0.12894760,-0.03031659,0.00244212,-0.09086967,
358,1.28417444,0.07984804,12.09051800,6.00000000,-0.03544922,0.02739258,-0.08077493,-0.07516253,-0.11811530,0.07000000,0.01150183,-0.16908877,-0.04635753,0.04199497,-0.01229746,-0.92327923,1.50098312,-0.07515749,-0.03029611,0.00244212,-0.09268503,
366,1.38951933,0.17801031,13.11523628,6.00000000,-0.06606445,0.07895508,-0.09396483,-0.22344892,-0.09173550,0.07000000,0.01150183,-0.20478943,-0.06993198,0.06487793,-0.01229746,-0.89360857,1.59348571,-0.22335163,-0.03336187,0.00244212,-0.10561167,
374,1.23629045,0.65445644,12.63639545,6.00000000,-0.09506836,0.12407227,-0.08863558,-0.27607524,-0.15781820,0.07000000,0.01150183,-0.06440136,-0.07867877,0.07774052,-0.01229746,-1.41022611,1.63013756,-0.27611578,-0.03384873,0.00244212,-0.12933226,
382,-0.48753482,0.68318689,12.78004837,6.00000000,-0.12246094,0.13374023,0.12719904,-0.20746116,-0.14902495,0.07000000,0.01150183,-0.12675464,-0.07477175,0.07204854,-0.01229746,-1.61966562,2.05250716,-0.20740464,-0.03427834,0.00244212,-0.14713413,
389,-0.14037558,-0.48278937,10.91496468,5.00000000,-0.11118164,0.13374023,0.10788051,-0.05837539,-0.17673703,0.07000000,0.01150183,-0.11647020,-0.06052922,0.05794384,-0.01229746,-2.00887394,2.40680885,-0.05842087,-0.03524012,0.00244212,-0.16317108,
398,-0.38937256,0.15167409,8.45851421,6.00000000,-0.09345703,0.10473633,0.00462629,0.04034896,-0.19911990,0.07000000,0.01150183,-0.06592117,-0.04766364,0.04636453,-0.01229746,-2.38586497,2.61101270,0.04027456,-0.03272612,0.00244212,-0.17698728,
406,-1.16269970,0.02717561,7.51759291,6.00000000,-0.08217774,0.09023438,0.09695555,0.21288341,-0.10665740,0.07000000,0.01150183,-0.19974929,-0.02073110,0.01529436,-0.01229746,-2.25845599,2.94087982,0.21283872,-0.02574437,0.00244212,-0.17185447,
414,0.22833148,-0.66714287,5.66448069,6.00000000,-0.02739258,0.03222656,-0.05612715,0.33505651,-0.11944761,0.07000000,0.01150183,-0.09807629,-0.00009726,-0.00275124,-0.01229746,-2.30558014,2.64068317,0.33500063,-0.02418658,0.00244212,-0.15394297,
422,0.28818652,-0.29125321,6.33725119,6.00000000,-0.00483398,0.00000000,-0.04160495,0.25605035,-0.07774622,0.07000000,0.01150183,-0.14710841,-0.00633740,0.00217001,-0.01229746,-2.07868719,2.58134174,0.25607383,-0.02125430,0.00244212,-0.14932844,
430,0.34325317,-0.79642975,8.08262444,6.00000000,-0.01450195,0.00644531,-0.04013941,0.28989109,-0.05989324,0.07000000,0.01150183,-0.12816319,0.00644570,-0.01029862,-0.01229746,-1.59872162,2.03679919,0.28995261,-0.01940738,0.00244212,-0.10999642,
438,1.53077722,-0.60249943,9.49280930,6.00000000,0.00805664,-0.02416992,-0.10608888,0.07658786,-0.06602187,0.07000000,0.01150183,-0.13073698,-0.02139815,0.01782153,-0.01229746,-1.35961151,1.80641580,0.07662231,-0.02187465,0.00244212,-0.10845819,
446,1.26023245,-0.26970541,11.91813564,6.00000000,-0.02739258,0.03061523,-0.15924814,-0.10447340,-0.05616276,0.07000000,0.01150183,-0.11187360,-0.04419713,0.04144512,-0.01229746,-1.25489175,1.63711894,-0.10449968,-0.02275630,0.00244212,-0.11163713,
454,1.26262665,0.47489133,13.59407616,6.00000000,-0.06767578,0.09023438,-0.09556359,-0.19107370,-0.05136644,0.07000000,0.01150183,-0.10980947,-0.05275764,0.05016764,-0.01229746,-1.15540791,1.53065372,-0.19107296,-0.02130141,0.00244212,-0.11045324,
461,1.27220345,-0.01831423,13.51985645,5.00000000,-0.08217774,0.08862305,-0.01349317,-0.32590374,-0.04017501,0.07000000,0.01150183,-0.10472543,-0.07669069,0.07458453,-0.01229746,-1.36310208,1.72089458,-0.32586697,-0.02502419,0.00244212,-0.13448650,
470,0.60182697,-0.59292263,13.21339893,6.00000000,-0.11279297,0.13212891,-0.04560189,-0.33642900,-0.10359308,0.07000000,0.01150183,-0.07818152,-0.08366649,0.08243573,-0.01229746,-1.72089458,1.98793006,-0.33635163,-0.02714805,0.00244212,-0.15773651,
478,0.31212854,-0.30801263,11.26691246,6.00000000,-0.11762695,0.15146485,0.01355278,-0.26594967,-0.14489476,0.07000000,0.01150183,-0.06381936,-0.08273274,0.08194322,-0.01229746,-2.21831346,2.43647981,-0.26587626,-0.02986237,0.00244212,-0.18671894,
486,-0.94003892,-0.38223287,9.82799721,6.00000000,-0.13374023,0.14824219,0.14172125,-0.07116559,-0.16368039,0.07000000,0.01150183,-0.12616584,-0.06593476,0.06319337,-0.01229746,-2.46789551,2.89899206,-0.07123984,-0.03327071,0.00244212,-0.19833331,
494,-1.03820121,-0.94247609,7.50562191,6.00000000,-0.09184571,0.12246094,0.07030930,0.12641634,-0.20431592,0.07000000,0.01150183,-0.02915710,-0.03960060,0.03928184,-0.01229746,-2.94087982,3.04036355,0.12634987,-0.03072668,0.00244212,-0.20623346,
502,-0.42289138,-0.64320087,6.30612659,6.00000000,-0.07250977,0.07250977,0.10534912,0.25165373,-0.16581208,0.07000000,0.01150183,-0.12159448,-0.02196156,0.01880161,-0.01229746,-2.88852000,3.30390835,0.25156587,-0.02715970,0.00244212,-0.20481363,
510,-0.32712331,-1.05979192,5.87277603,6.00000000,-0.02900391,0.03867187,0.03580240,0.39247915,-0.11518420,0.07000000,0.01150183,-0.10012243,0.00308669,-0.00599170,-0.01229746,-2.75063896,3.09272337,0.39255047,-0.02323073,0.00244212,-0.18210071,
518,0.24509090,-0.89698625,6.85439873,6.00000000,-0.00805664,-0.00161133,-0.07651153,0.34797990,-0.09466659,0.07000000,0.01150183,-0.15682411,0.00135152,-0.00585861,-0.01229746,-2.44695163,2.98276758,0.34795791,-0.02091480,0.00244212,-0.17041706,
526,1.03278327,-0.64080667,8.12572002,6.00000000,0.00644531,-0.01127930,-0.11248398,0.27616826,-0.06415664,0.07000000,0.01150183,-0.17060687,-0.00023626,-0.00468755,-0.01229746,-1.94255149,2.52549148,0.27615345,-0.01874960,0.00244212,-0.14096345,
533,1.73667860,-0.37983868,9.96446705,5.00000000,-0.00322266,-0.00322266,-0.11434920,0.06899368,-0.06482279,0.07000000,0.01150183,-0.11495666,-0.02412960,0.02108306,-0.01229746,-1.87797427,2.27067351,0.06900088,-0.01818891,0.00244212,-0.14438082,
542,1.69597709,0.35278705,12.38739872,6.00000000,-0.03867187,0.04833984,-0.04919913,-0.08342287,-0.07055174,0.07000000,0.01150183,-0.10114811,-0.04169077,0.03923978,-0.01229746,-1.59872162,1.94429684,-0.08338602,-0.01948449,0.00244212,-0.13355398,
550,1.87793648,0.11576107,13.57971096,6.00000000,-0.05639648,0.06606445,-0.01269376,-0.29073068,-0.08081055,0.07000000,0.01150183,-0.04342633,-0.07563642,0.07528169,-0.01229746,-1.78372645,1.93207943,-0.29068846,-0.02565086,0.00244212,-0.15469852,
558,1.12136877,0.29532620,14.34585571,6.00000000,-0.10795899,0.13857421,-0.00869682,-0.36427429,-0.10932203,0.07000000,0.01150183,-0.03473083,-0.09156558,0.09169912,-0.01229746,-2.09264970,2.21133208,-0.36422515,-0.02838463,0.00244212,-0.18116176,
566,0.84364134,0.36236385,12.79680729,6.00000000,-0.14018555,0.16757813,0.05125723,-0.27913955,-0.10878910,0.07000000,0.01150183,-0.06539514,-0.08984055,0.08911698,-0.01229746,-2.36492109,2.58832335,-0.27907962,-0.03323542,0.00244212,-0.19840989,
574,-0.19304802,-0.29604164,11.24297047,6.00000000,-0.13051757,0.16274413,0.05139046,-0.19746882,-0.13037257,0.07000000,0.01150183,-0.04138597,-0.08610535,0.08607205,-0.01229746,-3.02465558,3.16602707,-0.19748268,-0.03317113,0.00244212,-0.23708652,
582,-0.37740156,0.26180738,8.34838104,6.00000000,-0.13374023,0.15146485,0.03407040,0.08857867,-0.16607855,0.07000000,0.01150183,-0.03932040,-0.05243496,0.05204022,-0.01229746,-3.32485223,3.45924258,0.08865656,-0.03351743,0.00244212,-0.23784472,
590,-1.05256641,-0.06619826,7.21831751,6.00000000,-0.08540039,0.11118164,0.15571052,0.22927086,-0.11811530,0.07000000,0.01150183,-0.10319500,-0.03929635,0.03694977,-0.01229746,-3.52381968,3.87637639,0.22922015,-0.03420173,0.00244212,-0.24990182,
598,-0.04460751,-0.50673139,4.84805775,6.00000000,-0.05478515,0.06606445,0.07124192,0.43271497,-0.14116429,0.07000000,0.01150183,-0.08887981,-0.00995446,0.00762123,-0.01229746,-3.55349040,3.85717773,0.43273970,-0.03184608,0.00244212,-0.23562561,
605,-0.73413759,-0.41814592,6.03797626,5.00000000,-0.02578125,0.01611328,0.02674267,0.47761393,-0.10878910,0.07000000,0.01150183,-0.10985960,0.00637316,-0.00953933,-0.01229746,-3.32310677,3.69835258,0.47768253,-0.02391056,0.00244212,-0.21838100,
614,0.64971095,-1.04303253,6.50723934,6.00000000,0.01127930,-0.01127930,-0.05213022,0.46149293,-0.04070794,0.07000000,0.01150183,-0.09910846,0.01316208,-0.01615869,-0.01229746,-2.90422773,3.24282169,0.46167168,-0.02058586,0.00244212,-0.18805611,
622,1.20516574,-0.40138650,8.64765549,6.00000000,0.00966797,-0.03061523,-0.13033697,0.26670885,0.00738854,0.07000000,0.01150183,-0.11596271,-0.01303738,0.00987935,-0.01229746,-2.51501966,2.91120934,0.26666790,-0.02499512,0.00244212,-0.17614518,
630,1.86835968,-0.36068508,10.72103500,6.00000000,-0.01289062,0.02255859,-0.18043190,0.09524024,0.05428594,0.07000000,0.01150183,-0.09445272,-0.02747080,0.02507946,-0.01229746,-2.21307755,2.53596354,0.09522718,-0.02148687,0.00244212,-0.16409969,
638,1.70076549,0.39109427,13.37859821,6.00000000,-0.04833984,0.04350586,-0.17536914,-0.10247493,0.04162897,0.07000000,0.01150183,-0.04546615,-0.05401308,0.05334867,-0.01229746,-2.15548158,2.31081581,-0.10251920,-0.02429464,0.00244212,-0.16816691,
646,1.32008743,0.27617258,14.76005268,6.00000000,-0.07895508,0.10312500,-0.06332162,-0.25955456,0.03643296,0.07000000,0.01150183,-0.08070244,-0.07785934,0.07652567,-0.01229746,-2.18689752,2.46265960,-0.25952011,-0.02585361,0.00244212,-0.18606865,
654,1.85878289,0.56587100,13.73054600,6.00000000,-0.11118164,0.13696289,-0.03134614,-0.30471995,-0.05136644,0.07000000,0.01150183,0.08675431,-0.08807798,0.09165357,-0.01229746,-2.82568789,2.52898192,-0.30459961,-0.02818936,0.00244212,-0.21470276,
662,0.21157207,0.04393502,13.11044788,6.00000000,-0.13051757,0.16596679,0.14878249,-0.29246268,-0.04830212,0.07000000,0.01150183,-0.02348505,-0.09614156,0.09675251,-0.01229746,-3.10319543,3.18348050,-0.29236481,-0.03059240,0.00244212,-0.24737161,
670,-0.09488574,-0.60728782,10.15839672,6.00000000,-0.14663085,0.17241211,0.07630470,-0.05144736,-0.09639860,0.07000000,0.01150183,0.05516025,-0.07099234,0.07353868,-0.01229746,-3.69835258,3.50985718,-0.05144341,-0.03256078,0.00244212,-0.26319459,
677,-1.23931420,-0.48039517,8.73624134,5.00000000,-0.10634766,0.14179687,0.09175953,0.12761544,-0.07294990,0.07000000,0.01150183,-0.01022211,-0.05487170,0.05539505,-0.01229746,-4.00727606,4.04218245,0.12756115,-0.03390304,0.00244212,-0.28059444,
686,-1.09566200,-0.67671967,6.44259596,6.00000000,-0.08217774,0.10957031,0.09135983,0.36583292,-0.05483045,0.07000000,0.01150183,-0.05055925,-0.01728214,0.01617816,-0.01229746,-4.12072229,4.29350996,0.36585701,-0.02534238,0.00244212,-0.27657312,
694,0.03918955,-0.62644148,4.62539721,6.00000000,-0.03867187,0.02900391,-0.00616543,0.50172877,-0.08440779,0.07000000,0.01150183,-0.03984894,0.00487329,-0.00597676,-0.01229746,-4.07883453,4.21497011,0.50174046,-0.02208184,0.00244212,-0.26245186,
702,-0.35106534,-1.16034842,4.95340252,6.00000000,0.00161133,-0.00805664,0.00928939,0.54955876,-0.02845066,0.07000000,0.01150183,-0.04803897,0.01915633,-0.02071173,-0.01229746,-3.77689242,3.94095349,0.54964721,-0.01766651,0.00244212,-0.23826696,
710,0.76942104,-0.55940384,6.69638157,6.00000000,0.03061523,-0.02416992,-0.02055441,0.47708097,-0.00500196,0.07000000,0.01150183,-0.08632271,0.01675154,-0.01940366,-0.01229746,-3.25329351,3.54825449,0.47726142,-0.01561560,0.00244212,-0.21049592,
718,1.46613371,-0.95205289,8.76497173,6.00000000,0.01933594,-0.04028320,-0.13353452,0.31174102,0.01884643,0.07000000,0.01150183,-0.04341628,-0.00664523,0.00548002,-0.01229746,-2.90771866,3.05607152,0.31185693,-0.02250526,0.00244212,-0.19223917,
726,1.46373951,-0.47800094,11.77927208,6.00000000,-0.00644531,0.01772461,-0.13966316,0.09950364,0.06361213,0.07000000,0.01150183,-0.09855089,-0.03559752,0.03322452,-0.01229746,-2.45218754,2.78903627,0.09952176,-0.02686318,0.00244212,-0.18151323,
734,1.65766990,-0.36307928,14.21656895,6.00000000,-0.05478515,0.05317383,-0.16471061,-0.12339224,0.04069635,0.07000000,0.01150183,-0.05515624,-0.06706460,0.06634162,-0.01229746,-2.54469013,2.73318577,-0.12340873,-0.02932804,0.00244212,-0.19888735,
742,0.96095723,0.20674074,15.73928165,6.00000000,-0.09829102,0.12568359,-0.09183311,-0.21612120,0.00179283,0.07000000,0.01150183,-0.02248379,-0.08228683,0.08270672,-0.01229746,-2.75238419,2.82917881,-0.21609721,-0.03094390,0.00244212,-0.21649683,
749,0.80054569,0.50122756,14.84624386,5.00000000,-0.12407227,0.14501953,0.03287131,-0.26235241,-0.04736950,0.07000000,0.01150183,0.02854802,-0.09729008,0.09940884,-0.01229746,-3.38942933,3.29169106,-0.26228860,-0.03387950,0.00244212,-0.25939840,
758,-0.32472911,-0.08056347,12.68906879,6.00000000,-0.13857421,0.18046875,0.13439353,-0.09514722,-0.10785648,0.07000000,0.01150183,0.06434010,-0.08178003,0.08474955,-0.01229746,-3.90430140,3.68439007,-0.09525579,-0.03529851,0.00244212,-0.28004238,
766,-0.86581868,0.14927989,10.29726124,6.00000000,-0.12407227,0.16113281,0.19448082,0.05433824,-0.13863289,0.07000000,0.01150183,-0.02240653,-0.06809025,0.06847969,-0.01229746,-4.33888865,4.41568279,0.05431867,-0.03317490,0.00244212,-0.31125781,
774,-0.02784810,-0.72460371,6.50245094,6.00000000,-0.11279297,0.12568359,0.16823426,0.32319888,-0.13450274,0.07000000,0.01150183,0.00201046,-0.03755791,0.03827122,-0.01229746,-4.79092884,4.78394747,0.32312387,-0.03335918,0.00244212,-0.32142782,
782,-1.26325619,-0.38223287,5.43224287,6.00000000,-0.06767578,0.07412110,0.12666611,0.51705039,-0.12650886,0.07000000,0.01150183,-0.05467074,-0.00616498,0.00486334,-0.01229746,-4.79267406,4.97942400,0.51711702,-0.02588390,0.00244212,-0.31456843,
790,-0.27445087,-0.98557174,4.12261486,6.00000000,-0.01127930,0.00966797,0.04672737,0.68985128,-0.08920411,0.07000000,0.01150183,-0.04343802,0.02544252,-0.02687212,-0.01229746,-4.58498001,4.73333311,0.68999672,-0.02016788,0.00244212,-0.28577980,
798,-0.41092038,-0.55222118,5.31492710,6.00000000,0.03383789,-0.04833984,0.01688356,0.67146534,-0.04217348,0.07000000,0.01150183,-0.08481954,0.03835272,-0.04117803,-0.01229746,-4.00727606,4.29700041,0.67150468,-0.01084620,0.00244212,-0.25060305,
806,0.55394292,-0.84910220,7.11536694,6.00000000,0.04672851,-0.05961914,-0.06065702,0.52197987,0.01991228,0.07000000,0.01150183,-0.09860694,0.03234412,-0.03554091,-0.01229746,-3.37721205,3.71406078,0.52209651,-0.00465669,0.00244212,-0.21769063,
814,2.39029551,-0.61686468,8.98763275,6.00000000,0.04995117,-0.06445312,-0.19082397,0.20981911,0.04202866,0.07000000,0.01150183,-0.06128012,-0.00449248,0.00279379,-0.01229746,-2.93215322,3.14159274,0.20988140,-0.00698458,0.00244212,-0.20354201,
821,1.01602387,-0.12365910,12.58611774,5.00000000,-0.00483398,0.00644531,-0.20414704,0.01316979,0.08519559,0.07000000,0.01150183,-0.07716034,-0.02516217,0.02324176,-0.01229746,-2.41379046,2.67733502,0.01304038,-0.00743328,0.00244212,-0.18234111,
830,2.12693334,0.44137251,14.78399467,6.00000000,-0.02739258,0.04028320,-0.14739057,-0.28446880,0.07267185,0.07000000,0.01150183,-0.00049403,-0.05772531,0.05840207,-0.01229746,-2.49582076,2.49756622,-0.28439808,-0.00290761,0.00244212,-0.20023735,
838,1.32487583,0.98964471,16.18220901,6.00000000,-0.09506836,0.11601563,-0.04067233,-0.42662653,0.02124459,0.07000000,0.01150183,0.04444869,-0.07742752,0.07964903,-0.01229746,-2.67733502,2.52549148,-0.42654657,-0.00332159,0.00244212,-0.21801239,
846,1.12376297,0.41503629,14.65231419,6.00000000,-0.10957031,0.14018555,0.09535677,-0.52122074,-0.02392080,0.07000000,0.01150183,0.06638180,-0.10410675,0.10735291,-0.01229746,-3.17824459,2.95135188,-0.52111423,-0.01186651,0.00244212,-0.25819308,
854,-0.63358110,0.05351182,12.89257526,6.00000000,-0.15307617,0.19980469,0.11827254,-0.34722075,-0.08107701,0.07000000,0.01150183,0.08943546,-0.08977833,0.09353110,-0.01229746,-3.67042756,3.36499476,-0.34715772,-0.01509850,0.00244212,-0.27826938,
862,-0.86342448,-0.33434886,9.73462391,6.00000000,-0.14501953,0.17563477,0.18915157,-0.20532946,-0.05976001,0.07000000,0.01150183,0.01077553,-0.07992907,0.08139686,-0.01229746,-4.26907539,4.23242331,-0.20514263,-0.01408536,0.00244212,-0.32081506,
870,-1.07890260,-0.66474867,6.10022545,6.00000000,-0.11601563,0.14340821,0.13625877,0.20209168,-0.08773857,0.07000000,0.01150183,0.03983195,-0.03606810,0.03781176,-0.01229746,-4.69842672,4.56229067,0.20202766,-0.01922955,0.00244212,-0.31884021,
878,-2.18023539,-0.35829088,5.43224287,6.00000000,-0.05156250,0.06928711,0.09735524,0.39714223,-0.07081820,0.07000000,0.01150183,-0.01277261,0.00134187,-0.00157700,-0.01229746,-4.73682356,4.78045654,0.39710021,-0.00593095,0.00244212,-0.31402808,
886,-0.25050884,-0.66714287,3.19845271,6.00000000,0.00000000,-0.00161133,0.06911021,0.59845465,-0.04190702,0.07000000,0.01150183,-0.05720881,0.03378425,-0.03573352,-0.01229746,-4.42615509,4.62163162,0.59853619,-0.00230434,0.00244212,-0.28262979,
893,-0.16192339,-0.64798927,4.23753643,5.00000000,0.03867187,-0.04511719,0.01794942,0.57007641,-0.00953183,0.07000000,0.01150183,-0.06487585,0.04055374,-0.04285168,-0.01229746,-4.00902128,4.23067808,0.57015520,0.00315342,0.00244212,-0.25557774,
902,1.38712513,-1.21302092,5.76264286,6.00000000,0.05317383,-0.07734375,-0.11088520,0.38688347,0.03230278,0.07000000,0.01150183,-0.06599139,0.02889229,-0.03113109,-0.01229746,-3.36150432,3.58665156,0.38704193,0.00757109,0.00244212,-0.22227223,
910,1.01362967,-0.96881229,9.62688446,6.00000000,0.04189453,-0.05639648,-0.18815935,0.19622952,0.07880048,0.07000000,0.01150183,-0.08271895,0.00980784,-0.01233461,-0.01229746,-2.62148452,2.90422773,0.19615206,0.00541443,0.00244212,-0.18479241,
918,2.19875956,-0.75572836,13.00510311,6.00000000,0.01289062,-0.01772461,-0.23412409,-0.11326666,0.10664582,0.07000000,0.01150183,-0.08067636,-0.02619312,0.02417822,-0.01229746,-2.36317563,2.63893771,-0.11334756,0.00679282,0.00244212,-0.18823352,
926,2.08383775,0.22110595,15.31071949,6.00000000,-0.03706055,0.04028320,-0.22719610,-0.33336467,0.05388624,0.07000000,0.01150183,-0.00103170,-0.05530476,0.05590951,-0.01229746,-2.26369190,2.26718259,-0.33330175,0.00283823,0.00244212,-0.18711214,
934,1.47092211,0.78134912,16.56049156,6.00000000,-0.07573242,0.09990235,-0.06212255,-0.61088538,0.02604092,0.07000000,0.01150183,0.01787488,-0.10481206,0.10664722,-0.01229746,-2.62497520,2.56388855,-0.61077571,-0.00607453,0.00244212,-0.23077258,
942,0.50605887,0.61854345,15.87814522,6.00000000,-0.15791015,0.19013672,0.02421129,-0.59676278,-0.07747976,0.07000000,0.01150183,0.08322452,-0.11339755,0.11724396,-0.01229746,-3.20616984,2.92168117,-0.59657764,-0.01152553,0.00244212,-0.26356003,
950,-0.23135525,0.37912324,13.46000099,6.00000000,-0.16918945,0.21108398,0.19115004,-0.43888381,-0.09226844,0.07000000,0.01150183,0.03573103,-0.10744736,0.10995327,-0.01229746,-3.95142531,3.82925224,-0.43883234,-0.01550667,0.00244212,-0.31169975,
958,-1.27043879,-0.53306758,9.51914501,6.00000000,-0.14985351,0.19013672,0.19061711,-0.09741214,-0.14849202,0.07000000,0.01150183,0.03327783,-0.06866995,0.07065740,-0.01229746,-4.64781141,4.53436518,-0.09731898,-0.01328137,0.00244212,-0.33756199,
965,-2.65189314,-0.45884734,7.41464186,5.00000000,-0.09990235,0.12729493,0.18955126,0.20275785,-0.15635267,0.07000000,0.01150183,-0.01946073,-0.04005338,0.04020631,-0.01229746,-4.94102716,5.00734949,0.20265751,-0.01840379,0.00244212,-0.34354967,
974,-0.78202164,-0.79403555,4.20641184,6.00000000,-0.06445312,0.07089844,0.18901834,0.44550520,-0.13077226,0.07000000,0.01150183,-0.03373600,-0.00529085,0.00458140,-0.01229746,-4.98116970,5.09636164,0.44553351,-0.01475584,0.00244212,-0.33070680,
982,-0.50668842,-0.54025018,3.14817452,6.00000000,-0.01450195,0.01933594,0.14545172,0.59339184,-0.09773091,0.07000000,0.01150183,-0.05874691,0.02105543,-0.02284303,-0.01229746,-4.75951290,4.96022606,0.59347862,-0.00989028,0.00244212,-0.30717707,
990,0.28818652,-0.99275434,3.60786128,6.00000000,0.01450195,-0.02739258,0.05632002,0.62936431,-0.03950886,0.07000000,0.01150183,-0.09144603,0.03551422,-0.03846998,-0.01229746,-4.20624352,4.51865721,0.62951314,-0.00586779,0.00244212,-0.26877007,
998,1.29853964,-1.21302092,5.62377930,6.00000000,0.05156250,-0.06123047,-0.12833849,0.51292020,0.01831350,0.07000000,0.01150183,-0.10014234,0.02638922,-0.02951922,-0.01229746,-3.68439007,4.02647448,0.51298940,-0.00564004,0.00244212,-0.24065773,
1006,0.87955433,-1.43807578,9.15283203,6.00000000,0.03867187,-0.06445312,-0.29407814,0.28669354,0.07773463,0.07000000,0.01150183,-0.10112743,0.00926675,-0.01225733,-0.01229746,-3.07701564,3.42259073,0.28676891,-0.00058766,0.00244212,-0.21334647,
1014,0.99687022,-0.53546178,13.46239567,6.00000000,0.00966797,-0.00966797,-0.30287147,0.06433059,0.10051718,0.07000000,0.01150183,-0.09548719,-0.01521149,0.01266732,-0.01229746,-2.68257093,3.00894761,0.06438245,-0.00077476,0.00244212,-0.20025755,
1022,2.22748995,0.52995795,14.96116543,6.00000000,-0.01611328,0.01450195,-0.21627113,-0.24916257,0.07054015,0.07000000,0.01150183,-0.03879893,-0.07057771,0.07036612,-0.01229746,-2.63021111,2.76285625,-0.24925786,-0.01662815,0.00244212,-0.21209329,
1030,1.55232501,1.42299521,16.91722870,6.00000000,-0.09990235,0.13696289,-0.07704444,-0.48391598,0.00072698,0.07000000,0.01150183,0.07050571,-0.10645989,0.10985143,-0.01229746,-3.13461137,2.89375591,-0.48389354,-0.01932381,0.00244212,-0.25186133,
1038,0.25706190,1.13808525,16.68977928,6.00000000,-0.15307617,0.12729493,0.08989429,-0.47205842,-0.06162524,0.07000000,0.01150183,0.20281117,-0.11006670,0.11727839,-0.01229746,-3.64424753,2.95135188,-0.47185466,-0.02279941,0.00244212,-0.27141204,
1046,-1.26086199,0.15167409,14.51344967,6.00000000,-0.16757813,0.20786133,0.15850838,-0.28220388,-0.10092846,0.07000000,0.01150183,0.05017272,-0.10021208,0.10308173,-0.01229746,-4.47851515,4.30747271,-0.28179252,-0.02265833,0.00244212,-0.33660597,
1054,-1.06453741,-0.40378070,10.17515659,6.00000000,-0.16113281,0.19174805,0.17756045,-0.00761428,-0.12797441,0.07000000,0.01150183,0.03074164,-0.07489084,0.07694353,-0.01229746,-5.15744781,5.05272818,-0.00767988,-0.02443473,0.00244212,-0.36811370,
1062,-1.71336615,-0.24097499,6.99326229,6.00000000,-0.11923828,0.14663085,0.19701222,0.29921728,-0.12384424,0.07000000,0.01150183,-0.02556169,-0.03536843,0.03534340,-0.01229746,-5.50825930,5.59552574,0.29921466,-0.01935293,0.00244212,-0.37820449,
1070,-1.22255480,-0.31519523,3.92150164,6.00000000,-0.05961914,0.07089844,0.17103212,0.58859557,-0.12237868,0.07000000,0.01150183,-0.04903229,0.00859343,-0.00986979,-0.01229746,-5.47858858,5.64614010,0.58860850,-0.01327078,0.00244212,-0.35810724,
1078,-0.60485071,-0.36786768,2.92072535,6.00000000,0.00000000,-0.00805664,0.13759108,0.72728926,-0.11571713,0.07000000,0.01150183,-0.05105850,0.03358247,-0.03527453,-0.01229746,-5.23249674,5.40702963,0.72747093,-0.00958702,0.00244212,-0.33064187,
1086,-0.22656684,-0.80121821,3.45463228,6.00000000,0.04672851,-0.04833984,0.09069367,0.70011014,-0.05403106,0.07000000,0.01150183,-0.08735690,0.04398019,-0.04689749,-0.01229746,-4.58672523,4.88517666,0.70026129,-0.00248882,0.00244212,-0.29056984,
1094,0.90349638,-1.56736279,5.32689810,6.00000000,0.06606445,-0.07412110,-0.08277340,0.53317136,0.00978670,0.07000000,0.01150183,-0.09449542,0.03477843,-0.03784824,-0.01229746,-3.84146976,4.16435575,0.53336340,0.00133874,0.00244212,-0.24980325,
1102,1.03757167,-1.37103820,8.98044968,6.00000000,0.04511719,-0.07895508,-0.30367079,0.25698298,0.07000723,0.07000000,0.01150183,-0.10983913,0.00415834,-0.00731874,-0.01229746,-3.14857388,3.52381968,0.25705975,-0.00064288,0.00244212,-0.22168989,
1109,1.25544405,-1.15316582,12.58611774,5.00000000,0.01289062,-0.00644531,-0.31179792,0.03541941,0.13395822,0.07000000,0.01150183,-0.14000100,-0.02467580,0.02100339,-0.01229746,-2.64242840,3.12064886,0.03532539,-0.00511063,0.00244212,-0.20492040,
1118,1.86596549,0.52995795,15.57408142,6.00000000,-0.03706055,0.03222656,-0.30486989,-0.27594200,0.07240539,0.07000000,0.01150183,-0.05719435,-0.06227444,0.06143295,-0.01229746,-2.64940977,2.84488678,-0.27597606,-0.00466573,0.00244212,-0.21765910,
1126,1.63133371,1.37511110,17.03693771,6.00000000,-0.08540039,0.11601563,-0.11674738,-0.45966789,0.01018640,0.07000000,0.01150183,0.01123954,-0.09090979,0.09240589,-0.01229746,-2.95484257,2.91644526,-0.45959416,-0.00774607,0.00244212,-0.24445714,
1134,0.68562400,1.63129079,16.91004562,6.00000000,-0.13535157,0.16113281,0.09096014,-0.55999100,-0.08427455,0.07000000,0.01150183,0.04798340,-0.11629014,0.11921838,-0.01229746,-3.54825449,3.38419342,-0.55993247,-0.01379496,0.00244212,-0.28987381,
1142,-0.39176676,0.20434654,14.45598888,6.00000000,-0.17724609,0.20947266,0.20314085,-0.42462805,-0.12784117,0.07000000,0.01150183,0.10062272,-0.10805613,0.11243194,-0.01229746,-4.32492590,3.98109603,-0.42441618,-0.01577926,0.00244212,-0.32957232,
1150,-1.52182996,-0.59771103,11.32916164,6.00000000,-0.16113281,0.20625000,0.24097852,-0.16003084,-0.14809233,0.07000000,0.01150183,0.04642230,-0.08821955,0.09086985,-0.01229746,-4.95324421,4.79441977,-0.16013053,-0.02094708,0.00244212,-0.36244261,
1158,-2.02940083,-0.58813423,7.38830566,6.00000000,-0.12246094,0.17563477,0.20820363,0.16905035,-0.13663444,0.07000000,0.01150183,-0.01380128,-0.04529046,0.04571678,-0.01229746,-5.40528488,5.45240831,0.16888252,-0.01412029,0.00244212,-0.37872016,
1166,-1.55295455,-0.64080667,4.64694500,6.00000000,-0.06445312,0.09345703,0.14771664,0.50772417,-0.14596063,0.07000000,0.01150183,-0.05116391,0.00621937,-0.00752246,-0.01229746,-5.52047634,5.69500923,0.50772947,-0.00495453,0.00244212,-0.36720055,
1174,-0.77723324,-0.39899230,2.81538057,6.00000000,0.00805664,0.00000000,0.09535677,0.68438882,-0.11864822,0.07000000,0.01150183,-0.05669750,0.03672771,-0.03861561,-0.01229746,-5.30929184,5.50302315,0.68448889,-0.00024497,0.00244212,-0.33996719,
1181,-0.08052053,-0.94965869,3.02367616,5.00000000,0.05800781,-0.05478515,0.08616382,0.68518823,-0.07028528,0.07000000,0.01150183,-0.11085670,0.04826948,-0.05189651,-0.01229746,-4.69668102,5.07541704,0.68541592,0.00540325,0.00244212,-0.30244625,
1190,1.12376297,-1.00472534,4.57751322,6.00000000,0.06928711,-0.08378907,-0.04466927,0.52131379,-0.01699278,0.07000000,0.01150183,-0.09343198,0.03617683,-0.03922661,-0.01229746,-3.94269872,4.26209402,0.52146238,0.00523908,0.00244212,-0.25782701,
1198,1.60499752,-1.67270756,7.88151121,6.00000000,0.04350586,-0.07734375,-0.23505670,0.22460778,0.05162132,0.07000000,0.01150183,-0.10167225,0.00229379,-0.00518865,-0.01229746,-3.27074695,3.61806750,0.22460505,0.00272624,0.00244212,-0.23182113,
1206,0.84124714,-0.80361241,12.39697552,6.00000000,0.00805664,-0.00322266,-0.29394493,0.03968281,0.11357383,0.07000000,0.01150183,-0.15433028,-0.01645171,0.01226407,-0.01229746,-2.64068317,3.16777253,0.03969699,0.00255833,0.00244212,-0.20624197,
1214,1.77019739,0.26898998,15.29874802,6.00000000,-0.02900391,0.02094727,-0.33577955,-0.24902929,0.06214658,0.07000000,0.01150183,-0.07715481,-0.05017164,0.04860780,-0.01229746,-2.68257093,2.94611573,-0.24904041,0.00444601,0.00244212,-0.22055954,
1222,1.41106713,1.61453128,16.83103752,6.00000000,-0.06928711,0.08540039,-0.17750084,-0.44141519,0.01631503,0.07000000,0.01150183,-0.04699751,-0.08011872,0.07981659,-0.01229746,-2.81347060,2.97404099,-0.44132322,0.00048510,0.00244212,-0.24012496,
1230,0.89152533,1.62171400,16.76160622,6.00000000,-0.11923828,0.14501953,0.03820056,-0.58663726,-0.08014439,0.07000000,0.01150183,0.04136506,-0.11149518,0.11416773,-0.01229746,-3.51509309,3.37372160,-0.58648765,-0.00613461,0.00244212,-0.29023090,
1238,-0.34627694,0.31447980,14.71216869,6.00000000,-0.15307617,0.20463867,0.19927713,-0.45793587,-0.13969874,0.07000000,0.01150183,0.06695350,-0.10646060,0.10985011,-0.01229746,-4.15562916,3.92699075,-0.45769665,-0.01095743,0.00244212,-0.32392842,
1246,-2.35501218,-0.52588499,12.46880150,6.00000000,-0.15468749,0.20463867,0.23151910,-0.20186543,-0.18166660,0.07000000,0.01150183,0.04288548,-0.08089784,0.08333930,-0.01229746,-4.86946869,4.72286129,-0.20199627,-0.00967691,0.00244212,-0.35987240,
1253,-1.28480399,-0.27928221,7.66363907,5.00000000,-0.11923828,0.16596679,0.23977944,0.08618051,-0.17367272,0.07000000,0.01150183,-0.05006780,-0.04930780,0.04875168,-0.01229746,-5.26042223,5.43146467,0.08610322,-0.00810770,0.00244212,-0.37870711,
1262,-1.24170840,-1.03106153,4.64933920,6.00000000,-0.07573242,0.09990235,0.14172125,0.41113153,-0.16114898,0.07000000,0.01150183,-0.07407238,-0.00487720,0.00307307,-0.01229746,-5.47684288,5.72991562,0.41117486,-0.00321171,0.00244212,-0.37383917,
1270,-0.70540720,-0.49476036,3.05240655,6.00000000,-0.01127930,0.00966797,0.09962017,0.62909782,-0.13197133,0.07000000,0.01150183,-0.06540044,0.03085029,-0.03290422,-0.01229746,-5.31801844,5.54142046,0.62915248,0.00144176,0.00244212,-0.34564006,
1278,-0.62879270,-0.51630819,3.27267313,6.00000000,0.03222656,-0.04189453,0.07617147,0.67199832,-0.06722096,0.07000000,0.01150183,-0.11949728,0.04881056,-0.05268623,-0.01229746,-4.72111559,5.12952280,0.67209083,0.00812189,0.00244212,-0.30623096,
1286,0.92983258,-1.22259772,4.58230162,6.00000000,0.06284180,-0.07895508,-0.04360342,0.54089874,-0.02485342,0.07000000,0.01150183,-0.07352801,0.04336946,-0.04593886,-0.01229746,-4.12944889,4.38077641,0.54104620,0.01105371,0.00244212,-0.26740322,
1294,1.43979752,-1.35188460,7.21592331,6.00000000,0.06445312,-0.08701172,-0.23412409,0.28269660,0.03843142,0.07000000,0.01150183,-0.07246158,0.01800792,-0.02027476,-0.01229746,-3.39466548,3.64250207,0.28280395,0.01155800,0.00732613,-0.23297329,
1302,0.39113721,-1.00233114,12.16952705,6.00000000,0.02255859,-0.03383789,-0.29567695,0.05313917,0.12183419,0.07000000,0.01150183,-0.13485061,-0.00514857,0.00136365,-0.01229746,-2.65988159,3.12064886,0.05294921,0.01192922,0.00732613,-0.20426945,
1310,2.17002916,-0.27928221,14.49908447,6.00000000,0.00483398,0.00483398,-0.33364785,-0.26741523,0.11170861,0.07000000,0.01150183,-0.06232607,-0.04931504,0.04815366,-0.01229746,-2.59006858,2.80299878,-0.26733470,0.00675934,0.00732613,-0.21339665,
1318,1.41106713,1.41341841,16.87892151,6.00000000,-0.08378907,0.08701172,-0.24464938,-0.49803847,0.05148808,0.07000000,0.01150183,0.01328512,-0.08088899,0.08229247,-0.01229746,-2.75936556,2.71398687,-0.49793097,0.00495720,0.00732613,-0.23289487,
1325,0.95138037,1.66002119,17.06327438,5.00000000,-0.10795899,0.14501953,0.01701680,-0.63433403,0.00925378,0.07000000,0.01150183,0.02145317,-0.11090019,0.11298339,-0.01229746,-3.24456692,3.17126322,-0.63420987,-0.00129535,0.00732613,-0.27663386,
1334,0.07510258,0.57544780,14.91088772,6.00000000,-0.16113281,0.19819336,0.12933074,-0.51895583,-0.11744913,0.07000000,0.01150183,0.12667204,-0.10803549,0.11312766,-0.01229746,-4.12421322,3.69137144,-0.51882601,-0.00641223,0.00732613,-0.31871846,
1342,-1.57210815,-0.04465045,12.42810059,6.00000000,-0.16918945,0.20947266,0.28787592,-0.30565256,-0.11065434,0.07000000,0.01150183,0.05150384,-0.09132081,0.09414199,-0.01229746,-4.79267406,4.61639595,-0.30562320,-0.00706436,0.00732613,-0.36073211,
1350,-1.07650840,-1.19147301,7.69955206,6.00000000,-0.14824219,0.18046875,0.27295405,0.03222186,-0.11824851,0.07000000,0.01150183,0.01171655,-0.05386125,0.05512003,-0.01229746,-5.36863279,5.32848978,0.03205410,-0.00574466,0.00732613,-0.38279635,
1358,-1.69181824,-0.55461538,5.14972734,6.00000000,-0.09667969,0.11440430,0.17462936,0.36823106,-0.14462832,0.07000000,0.01150183,0.01022683,-0.00753274,0.00815992,-0.01229746,-5.67406559,5.63915873,0.36818615,-0.00016063,0.00732613,-0.38076589,
1366,-1.26565039,-0.47321254,3.46660352,6.00000000,-0.02094727,0.02578125,0.13692492,0.62736589,-0.08613979,0.07000000,0.01150183,-0.03014855,0.03246011,-0.03349293,-0.01229746,-5.38434076,5.48731518,0.62744045,0.00811614,0.03663015,-0.34620634,
1374,-0.97595197,-0.80361241,3.31816292,6.00000000,0.03706055,-0.04833984,0.10454973,0.67159867,-0.05216582,0.07000000,0.01150183,-0.07665145,0.05399036,-0.05667593,-0.01229746,-4.82932615,5.09112549,0.67175585,0.01821690,0.03663015,-0.30876565,
1382,1.00884128,-0.87543845,3.82333946,6.00000000,0.07412110,-0.09829102,0.00089581,0.52371192,0.00805470,0.07000000,0.01150183,-0.04242900,0.02939790,-0.03074393,-0.01229746,-4.17308235,4.31794453,0.52400458,0.01778366,0.11965823,-0.26795492,
1390,0.97771662,-1.96719444,6.98847389,6.00000000,0.04350586,-0.05961914,-0.20814401,0.30281451,0.07893373,0.07000000,0.01150183,-0.06123000,0.00603302,-0.00766815,-0.01229746,-3.43306255,3.64250207,0.30291179,0.01539617,0.11965823,-0.23291092,
1397,0.39113721,-1.32554841,11.39859390,5.00000000,0.00000000,-0.00483398,-0.32805213,0.11402585,0.13835485,0.07000000,0.01150183,-0.10435829,-0.01394603,0.01131777,-0.01229746,-2.96007848,3.31612563,0.11407350,0.01600525,0.11965823,-0.21773320,
1406,1.46852791,-0.16675474,14.29557800,6.00000000,-0.01450195,0.01450195,-0.34643802,-0.08288994,0.15207766,0.07000000,-0.03067155,-0.10168061,-0.05655791,0.05592882,-0.01229746,-2.81870675,3.16602707,-0.08290309,0.01817660,0.24908423,-0.22141579,
1414,0.92264998,0.64487964,16.79512405,6.00000000,-0.08540039,0.10151367,-0.25890511,-0.31591138,0.07373770,0.07000000,-0.03067155,0.02195990,-0.09450284,0.09790306,-0.01229746,-3.26725626,3.19220710,-0.31590581,0.01223551,0.24908423,-0.25528443,
1422,1.08545566,1.72945297,17.23326302,6.00000000,-0.12568359,0.17563477,-0.00163557,-0.39638302,0.00259222,0.07000000,-0.15335774,0.11646461,-0.11922876,0.12917043,-0.01229746,-4.01425743,3.61632204,-0.39627111,0.00329606,0.25396824,-0.30322590,
1430,-0.56414926,1.44933140,15.93799973,6.00000000,-0.17402343,0.22558594,0.23271817,-0.21692057,-0.09679830,0.07000000,-0.15335774,0.12773791,-0.10720991,0.11738547,-0.01229746,-4.79092884,4.35459661,-0.21699147,0.00081448,0.25396824,-0.34486559,
1438,-2.00067019,-0.30083004,13.15593815,6.00000000,-0.15791015,0.20786133,0.28254667,0.04354651,-0.13130519,0.07000000,-0.15335774,0.12663774,-0.07403013,0.08380380,-0.01229746,-5.54316568,5.11032391,0.04365893,0.00835216,0.25396824,-0.38037944,
1446,-1.62956905,-0.66235447,8.61892509,6.00000000,-0.10795899,0.15146485,0.27295405,0.29708558,-0.12384424,0.07000000,-0.15335774,0.05210642,-0.04871252,0.05609686,-0.01229746,-5.99520588,5.81718206,0.29704234,0.00838840,0.25396824,-0.40385327,
1454,-0.82751149,-0.72220951,4.65412760,6.00000000,-0.07089844,0.09345703,0.21113473,0.57420659,-0.09879676,0.07000000,-0.10351667,-0.00974985,-0.01309626,0.01686660,-0.01229746,-6.04756594,6.08072710,0.57422984,0.01171435,0.25885224,-0.39527184,
1462,-0.96398097,-0.66235447,3.43787289,6.00000000,-0.01611328,0.02900391,0.10015310,0.81588805,-0.08320870,0.07000000,-0.10351667,-0.02400163,0.02605911,-0.02322265,-0.01229746,-5.95855379,6.04058456,0.81603456,0.01818783,0.25885224,-0.37321323,
1469,-0.81075203,-0.27928221,2.84889936,5.00000000,0.03383789,-0.04028320,0.11307652,0.87104577,-0.01885801,0.07000000,-0.10351667,-0.05976832,0.04701868,-0.04550716,-0.01229746,-5.58854437,5.79274750,0.87127423,0.02813066,0.25885224,-0.34699348,
1478,-0.56175506,-1.06458032,4.47456217,6.00000000,0.07089844,-0.08701172,-0.02255289,0.86358488,0.01151871,0.07000000,-0.00383413,-0.08533344,0.06357013,-0.06590753,-0.01229746,-4.67748260,4.96895266,0.86388654,0.03696285,0.26129436,-0.28507400,
1486,1.06390786,-1.92649293,6.27739620,6.00000000,0.09023438,-0.11762695,-0.21027571,0.56448066,0.07626910,0.07000000,-0.00383413,-0.06637962,0.02958190,-0.03099664,-0.01229746,-4.01949310,4.24638605,0.56446707,0.03394202,0.26129436,-0.25693983,
1494,1.53556561,-0.86825585,10.18952179,6.00000000,0.03706055,-0.04672851,-0.29847479,0.28136429,0.15967186,0.07000000,-0.00383413,-0.09958668,0.01045849,-0.01262682,-0.01229746,-3.28994560,3.63028479,0.28112072,0.04385443,0.26129436,-0.22889192,
1502,1.39670193,-0.30561844,13.96757221,6.00000000,0.02739258,-0.03061523,-0.34004292,0.03608556,0.16859834,0.07000000,-0.00383413,-0.08784126,-0.02231317,0.02087502,-0.01229746,-2.89375591,3.19395256,0.03587578,0.03845089,0.26129436,-0.21656783,
1510,1.57626700,1.12371993,16.46951294,6.00000000,-0.04028320,0.03706055,-0.29021445,-0.24170159,0.09532116,0.07000000,-0.00383413,0.01992543,-0.04172267,0.04353183,-0.01229746,-3.06479836,2.99673033,-0.24167480,0.04642503,0.21978021,-0.23561907,
1518,1.49247003,1.80127907,17.11355400,6.00000000,-0.05639648,0.07895508,-0.00509958,-0.47059286,0.05082192,0.07000000,-0.00383413,0.04699632,-0.08121840,0.08434214,-0.01229746,-3.31088948,3.15031934,-0.47051498,0.03937555,0.21978021,-0.26648241,
1526,0.17087065,0.84599257,15.81110764,6.00000000,-0.11762695,0.14663085,0.11467530,-0.50883019,-0.06482279,0.07000000,-0.00383413,0.17880863,-0.09033751,0.09730668,-0.01229746,-3.90255642,3.29169106,-0.50879663,0.03290409,0.18803430,-0.29561755,
1534,-0.24811466,-0.00634322,13.49830818,6.00000000,-0.14340821,0.17885742,0.23778097,-0.48937845,-0.10359308,0.07000000,-0.00383413,0.10062531,-0.10345764,0.10846069,-0.01229746,-4.46978855,4.12595844,-0.48935175,0.02704905,0.18803430,-0.34467152,
1541,-1.26325619,-0.64320087,9.28930187,5.00000000,-0.15146485,0.19174805,0.26855737,-0.12032792,-0.10625771,0.07000000,-0.00383413,0.06440366,-0.06606010,0.06959150,-0.01229746,-4.92357397,4.70366240,-0.12047830,0.02295393,0.18803430,-0.35525030,
1550,-2.71174812,-0.46124154,7.19198132,6.00000000,-0.10151367,0.12407227,0.19115004,0.19449751,-0.11611682,0.07000000,-0.00383413,0.02248297,-0.01340375,0.01504440,-0.01229746,-5.33896208,5.26216793,0.19442755,0.03435093,0.15384626,-0.36763757,
1558,-1.08847940,-0.67911392,3.53603530,6.00000000,-0.02094727,0.02255859,0.12719904,0.48600748,-0.09093612,0.07000000,-0.00383413,-0.00610886,0.03219043,-0.03197727,-0.01229746,-5.20457220,5.22551584,0.48607665,0.04068492,0.15384626,-0.34048292,
1566,-0.84905928,-0.44927055,2.61905599,6.00000000,0.04995117,-0.05639648,0.13745785,0.54263079,-0.04896827,0.07000000,-0.00383413,-0.02807632,0.05098312,-0.05168372,-0.01229746,-4.76474905,4.86074209,0.54280245,0.04716333,0.15384626,-0.30744010,
1574,-0.60245651,-0.73657471,3.52885270,6.00000000,0.07412110,-0.09345703,0.03673503,0.49813151,-0.01259615,0.07000000,-0.00383413,-0.01271786,0.06170485,-0.06219859,-0.01229746,-3.94968009,3.99331331,0.49828652,0.05311867,0.15384626,-0.25006855,
1582,0.04158375,-1.70383227,5.93741941,6.00000000,0.08378907,-0.10312500,-0.10595563,0.25005496,0.06134720,0.07000000,0.00766789,-0.02553512,0.03572930,-0.03659865,-0.01229746,-3.14857388,3.23584032,0.25022948,0.05584061,0.18559217,-0.21182382,
1590,1.24107885,-1.54102647,8.54949379,6.00000000,0.05478515,-0.07412110,-0.29461107,-0.02546727,0.12689696,0.07000000,0.00766789,-0.08429673,-0.00109365,-0.00101776,-0.01229746,-2.30208921,2.59006858,-0.02535626,0.04760403,0.18559217,-0.17794746,
1598,0.09425618,-1.01909053,14.30036640,6.00000000,-0.00322266,0.00483398,-0.39626652,-0.25782254,0.15594138,0.07000000,0.00766789,-0.13794012,-0.03581097,0.03265575,-0.01229746,-1.83783174,2.30907059,-0.25783327,0.04549561,0.21978021,-0.16784267,
1606,2.20115376,0.64966804,15.38493919,6.00000000,-0.04995117,0.05639648,-0.38813943,-0.48604769,0.10784490,0.07000000,0.00766789,-0.02047181,-0.07758422,0.07831271,-0.01229746,-2.02981806,2.09963107,-0.48595431,0.03265070,0.21978021,-0.18365534,
1613,0.42226183,1.97605574,17.85096741,5.00000000,-0.10795899,0.13696289,-0.14432624,-0.68935853,0.05295362,0.07000000,0.00766789,-0.02557723,-0.11728152,0.11843567,-0.01229746,-2.40855432,2.49582076,-0.68922013,0.02478565,0.21978021,-0.22617748,
1622,0.06313156,1.68156898,17.06567001,6.00000000,-0.17885742,0.21269532,0.10774728,-0.56172305,-0.09479982,0.07000000,0.00766789,0.13737923,-0.12476877,0.13078165,-0.01229746,-3.45924258,2.98974895,-0.56145245,0.01642448,0.27106237,-0.27258351,
1630,-0.60724491,0.37194064,14.25966454,6.00000000,-0.18369141,0.23686524,0.31905204,-0.43595272,-0.15422095,0.07000000,0.00766789,0.06937455,-0.12627295,0.13048705,-0.01229746,-4.39822960,4.16086483,-0.43580139,0.01223246,0.27106237,-0.33950329,
1638,-2.22811937,-0.27209961,10.46246052,6.00000000,-0.17885742,0.23364258,0.34183457,-0.00841368,-0.18499738,0.07000000,0.00766789,0.00566732,-0.09114395,0.09324391,-0.01229746,-5.16792011,5.14872122,-0.00828713,0.01120744,0.32234430,-0.37199679,
1646,-2.28079200,-1.07655144,7.35957527,6.00000000,-0.13212891,0.16113281,0.23618220,0.39794165,-0.17553796,0.07000000,0.00766789,-0.06339241,-0.04725105,0.04687303,-0.01229746,-5.67057467,5.88699532,0.39789468,0.01023982,0.32234430,-0.38741937,
1654,-2.43402076,-0.98317748,4.50089836,6.00000000,-0.06928711,0.09184571,0.18435524,0.73341793,-0.14622708,0.07000000,0.01150183,-0.13379012,-0.01188710,0.00908172,-0.01229746,-5.79449320,6.25176954,0.73344791,0.01993432,0.41269851,-0.38085553,
1662,-0.76526225,-0.56898063,1.98219836,6.00000000,-0.02416992,0.02255859,0.09788816,0.98815602,-0.12957317,0.07000000,0.01150183,-0.14098787,0.03293402,-0.03656039,-0.01229746,-5.61297894,6.09468985,0.98832464,0.02886326,0.41269851,-0.35031721,
1670,-1.03341281,-0.84910220,3.35168171,6.00000000,0.04511719,-0.04995117,0.06737821,1.06796145,-0.10985495,0.07000000,0.01150183,-0.16197893,0.05436559,-0.05887568,-0.01229746,-5.09461594,5.64788580,1.06816435,0.03939749,0.44688654,-0.30982223,
1678,-0.00390608,-1.33033681,4.72116518,6.00000000,0.08862305,-0.10312500,-0.03174584,0.98295999,-0.07787945,0.07000000,0.01150183,-0.16844481,0.06158055,-0.06645566,-0.01229746,-4.23591423,4.81187296,0.98314822,0.04728215,0.44688654,-0.25492367,
1685,0.83167028,-1.36624980,7.43618965,5.00000000,0.08378907,-0.12246094,-0.18349624,0.68918514,-0.03910916,0.07000000,0.01150183,-0.14145292,0.03748928,-0.04135375,-0.01229746,-3.54127288,4.02472925,0.68931019,0.05223479,0.44688654,-0.22274855,
1694,1.50683522,-1.29442370,11.44887161,6.00000000,0.05639648,-0.07089844,-0.24917924,0.38315293,0.04376067,0.07000000,0.01150183,-0.18173385,-0.00286286,-0.00161792,-0.01229746,-2.80648947,3.42782664,0.38320434,0.05083232,0.48351645,-0.19685736,
1702,1.25783825,-0.05183305,15.71773338,6.00000000,-0.00322266,0.00000000,-0.29061416,0.05593702,0.04642529,0.07000000,0.01150183,-0.22020072,-0.05019201,0.04523037,-0.01229746,-2.47662210,3.22885919,0.05586952,0.04423705,0.48351645,-0.20137163,
1710,1.55471921,0.52995795,17.75041008,6.00000000,-0.06606445,0.07250977,-0.29221293,-0.20519622,-0.03351345,0.07000000,0.01150183,-0.07102913,-0.10141452,0.10143831,-0.01229746,-2.92517185,3.16777253,-0.20513207,0.03527195,0.52747250,-0.23411830,
1718,0.38874298,2.25378323,18.21488571,6.00000000,-0.15146485,0.18852539,0.04339658,-0.29446113,-0.09040319,0.07000000,0.01150183,-0.09246744,-0.12775573,0.12758870,-0.01229746,-3.52207446,3.83797884,-0.29436535,0.02888098,0.52747250,-0.28615800,
1726,-0.28642190,0.67839849,15.64111900,6.00000000,-0.19174805,0.22558594,0.18368909,-0.17002317,-0.22110304,0.07000000,0.01150183,0.01474104,-0.13092996,0.13399039,-0.01229746,-4.70017147,4.64955711,-0.16995665,0.02635190,0.56654453,-0.34884089,
1734,-1.98151672,0.32405663,12.43528271,6.00000000,-0.19819336,0.23203126,0.36981314,0.18677010,-0.26413673,0.07000000,0.01150183,-0.01898525,-0.09222510,0.09390731,-0.01229746,-5.59203482,5.65661240,0.18649930,0.02987467,0.56654453,-0.39151818,
1742,-2.64231634,-0.24815759,8.12332535,6.00000000,-0.14663085,0.17241211,0.43522969,0.58726323,-0.24521789,0.07000000,0.01150183,-0.13592410,-0.05351178,0.05156462,-0.01229746,-6.12436008,6.58861780,0.58733785,0.04109201,0.65934062,-0.41538358,
1750,-1.99827611,-0.69347912,4.26866102,6.00000000,-0.09506836,0.10634766,0.30626184,0.97949600,-0.24761605,0.07000000,0.01150183,-0.15879409,0.00792919,-0.01132457,-0.01229746,-6.31111050,6.85390806,0.97965467,0.05334578,0.65934062,-0.40340912,
1757,-1.76125014,-0.57855743,2.60947919,5.00000000,-0.00161133,-0.00966797,0.23658189,1.26447761,-0.23709078,0.07000000,0.01150183,-0.14864573,0.04889123,-0.05256666,-0.01229746,-6.12087011,6.62876034,1.26468360,0.05423249,0.65934062,-0.36793172,
1766,-0.31515229,-0.66235447,1.65898108,6.00000000,0.05800781,-0.09667969,0.20420669,1.31390631,-0.16354714,0.07000000,0.01533577,-0.18334943,0.07415247,-0.07932159,-0.01229746,-5.42099285,6.04756594,1.31413388,0.06525477,0.65934062,-0.31824332,
1774,-0.70780140,-1.52187288,3.52167010,6.00000000,0.09506836,-0.14179687,0.06937668,1.15682662,-0.11265281,0.07000000,0.01533577,-0.10631706,0.07626031,-0.07937370,-0.01229746,-4.61290503,4.97593403,1.15710747,0.07507900,0.65934062,-0.26187974,
1782,0.65689361,-2.14436531,6.10740805,6.00000000,0.10957031,-0.13212891,-0.20028338,0.85918814,-0.04363903,0.07000000,0.01533577,-0.11398746,0.05535212,-0.05849619,-0.01229746,-3.64599276,4.03520107,0.85929632,0.08197504,0.66178274,-0.21464592,
1790,0.23790829,-1.34709620,10.22543526,6.00000000,0.08378907,-0.10795899,-0.44596177,0.59086043,0.02310983,0.07000000,0.01533577,-0.21136905,0.03438871,-0.04009333,-0.01229746,-2.63021111,3.35277748,0.59073615,0.08719516,0.66178274,-0.17284453,
1798,0.34564736,-0.21463877,14.33149052,6.00000000,0.05317383,-0.07250977,-0.55667692,0.26884055,0.06267951,0.07000000,0.01533577,-0.15080287,-0.00587377,0.00241907,-0.01229746,-2.25496531,2.76983738,0.26896590,0.08819000,0.69597077,-0.16154765,
1806,1.14770496,1.44933140,17.23565674,6.00000000,-0.00805664,0.00000000,-0.35643035,-0.03839070,0.07546971,0.07000000,0.01533577,-0.17266494,-0.05865284,0.05527110,-0.01229746,-2.04727125,2.63719249,-0.03841141,0.07481875,0.69597077,-0.17141898,
1814,0.41507921,2.14364982,19.03130913,6.00000000,-0.07412110,0.10151367,-0.13579944,-0.27687463,-0.02365434,0.07000000,0.01533577,0.00203212,-0.09442560,0.09649545,-0.01229746,-2.66162705,2.65464592,-0.27681330,0.07179363,0.69597077,-0.21131127,
1822,-0.19544221,2.34955120,18.41121101,6.00000000,-0.14179687,0.16757813,0.22272584,-0.28513494,-0.10825618,0.07000000,0.01533577,0.04655032,-0.10558212,0.10913306,-0.01229746,-3.47145987,3.31263494,-0.28491625,0.06993537,0.69597077,-0.26475069,
1829,-1.01186502,0.32645082,15.12397194,5.00000000,-0.14985351,0.19174805,0.36688203,-0.15749943,-0.20111835,0.07000000,0.01533577,0.10740833,-0.10054655,0.10583695,-0.01229746,-4.43139076,4.06487179,-0.15726759,0.06770200,0.69597077,-0.31720182,
1838,-2.19938898,0.01281040,10.91735935,6.00000000,-0.14824219,0.19658203,0.35036138,0.14160471,-0.23482586,0.07000000,0.01533577,0.03526422,-0.07921582,0.08230801,-0.01229746,-5.12428665,5.00385904,0.14136840,0.06634291,0.73015881,-0.35441911,
1846,-2.58964396,-0.22421557,6.51442194,6.00000000,-0.11279297,0.15629883,0.38007197,0.51731682,-0.17327303,0.07000000,0.01533577,-0.07856543,-0.02623492,0.02545270,-0.01229746,-5.50127792,5.77005863,0.51754785,0.07772347,0.73015881,-0.36851275,
1854,-2.16108179,-0.39659810,2.96382093,6.00000000,-0.03544922,0.05156250,0.23964621,0.92646992,-0.16354714,0.07000000,0.01533577,-0.06282172,0.02481657,-0.02581856,-0.01229746,-5.65312147,5.86779737,0.92648017,0.07683673,0.73260069,-0.34804723,
1862,-1.78040373,-0.12365910,1.52251160,6.00000000,0.03544922,-0.04350586,0.20327407,1.14776695,-0.12890702,0.07000000,0.01533577,-0.09039253,0.06704618,-0.06943221,-0.01229746,-5.21853447,5.52745819,1.14802039,0.08526508,0.73260069,-0.30420050,
1870,-1.28001559,-0.83473700,1.59194350,6.00000000,0.10634766,-0.11440430,0.19607958,1.14803338,-0.04523780,0.07000000,0.01150183,-0.11901030,0.08778574,-0.09123339,-0.01229746,-4.31794453,4.72460651,1.14835048,0.09592333,0.73504281,-0.24284485,
1878,0.55633712,-2.37899709,2.67172837,6.00000000,0.11923828,-0.14985351,-0.01375961,0.93939346,0.00139313,0.07000000,0.01150183,-0.06240843,0.08120726,-0.08307175,-0.01229746,-3.35975885,3.57268882,0.93963444,0.10292820,0.73504281,-0.18191324,
1886,1.19319475,-2.32871890,5.87277603,6.00000000,0.11762695,-0.15468749,-0.34590513,0.61990488,0.02857231,0.07000000,0.01150183,0.01641781,0.05413830,-0.05347298,-0.01229746,-2.44869709,2.39284658,0.62011909,0.10908870,0.76678872,-0.12964290,
1894,0.10862140,-1.24653971,11.05382824,6.00000000,0.07573242,-0.10151367,-0.48100156,0.44190794,0.14674842,0.07000000,0.01150183,-0.12621485,0.03706804,-0.04028480,-0.01229746,-1.44513273,1.87622893,0.44179779,0.10841619,0.76678872,-0.08775762,
1901,1.14770496,-0.37983868,14.71456337,5.00000000,0.05156250,-0.06606445,-0.57919306,0.09790486,0.19564429,0.07000000,0.01150183,-0.07517204,-0.01244090,0.01128839,-0.01229746,-1.09257603,1.34913957,0.09769312,0.09866857,0.76678872,-0.08086473,
1910,1.65288150,1.39665902,17.71210289,6.00000000,-0.00966797,0.01450195,-0.42504448,-0.30205530,0.16246970,0.07000000,0.01150183,0.00923950,-0.08109157,0.08330369,-0.01229746,-1.24616516,1.21474910,-0.30202329,0.08884469,0.80830288,-0.11032917,
1918,-0.09727995,2.06464124,20.06560326,6.00000000,-0.10795899,0.14179687,-0.07464629,-0.43088993,0.10264888,0.07000000,0.01150183,0.05776818,-0.10602407,0.11000946,-0.01229746,-2.01585531,1.81863308,-0.43069363,0.08833163,0.80830288,-0.16905397,
1926,-0.82990569,1.23864162,18.75597572,6.00000000,-0.15307617,0.19819336,0.14998157,-0.32603696,-0.04457165,0.07000000,0.01150183,0.14355904,-0.10648177,0.11299711,-0.01229746,-3.13461137,2.64417386,-0.32595414,0.08472184,0.80830288,-0.23150186,
1934,-0.69583035,0.30969140,14.23811722,6.00000000,-0.16113281,0.19497070,0.35049462,-0.16749178,-0.12717503,0.07000000,0.01150183,0.18456672,-0.10416151,0.11191861,-0.01229746,-4.33190727,3.70184350,-0.16746338,0.07942579,0.80830288,-0.30126408,
1942,-2.93680310,0.06308863,10.10572433,6.00000000,-0.15146485,0.19980469,0.47719753,0.24885586,-0.17020871,0.07000000,0.01150183,0.11965814,-0.06396078,0.06942630,-0.01229746,-5.03352928,4.62512255,0.24877708,0.07583575,0.80830288,-0.32980120,
1950,-3.57844925,-1.07176292,5.78419065,6.00000000,-0.09184571,0.13374023,0.41124803,0.70264149,-0.16261452,0.07000000,0.01150183,0.12916246,0.00001445,0.00491123,-0.01229746,-5.53443909,5.09287071,0.70275348,0.08531803,0.80830288,-0.33197820,
1958,-1.76125014,-0.22900398,1.85769987,6.00000000,0.00161133,0.01611328,0.33357424,1.05517137,-0.12397747,0.07000000,0.01150183,0.01788582,0.05705170,-0.05604841,-0.01229746,-5.24122334,5.18013716,1.05536962,0.09581620,0.80830288,-0.29919565,
1966,-1.95039201,-1.23456872,0.94790322,6.00000000,0.08217774,-0.08862305,0.27974880,1.28872573,-0.05709538,0.07000000,0.01150183,0.01482221,0.10453497,-0.10431916,-0.01229746,-4.57799864,4.52738380,1.28908849,0.10431763,0.80830288,-0.23497337,
1973,0.07270838,-0.82994860,0.63186860,5.00000000,0.14179687,-0.18369141,0.12027101,1.17388034,0.00618946,0.07000000,0.01150183,0.07394859,0.11348641,-0.11182705,-0.01229746,-3.59363294,3.34056020,1.17417884,0.11398397,0.80830288,-0.16508299,
1982,-0.99031717,-2.03423214,2.84171677,6.00000000,0.16113281,-0.19013672,-0.04480250,0.78484517,0.07880048,0.07000000,0.01150183,0.14863783,0.09258126,-0.08869186,-0.01229746,-2.20609617,1.69820547,0.78546536,0.12319323,0.80097675,-0.08399466,
1990,0.93940938,-2.20900869,5.50406885,6.00000000,0.12729493,-0.15791015,-0.52616698,0.63815755,-0.01126383,0.07000000,0.01150183,0.20289508,0.08559164,-0.08019334,-0.01229746,-1.07686818,0.38397244,0.63811219,0.12036375,0.80097675,-0.00663690,
1998,-0.76526225,-0.88262105,12.48077297,6.00000000,0.12084961,-0.14663085,-0.57373053,0.34451592,0.15727369,0.07000000,0.01150183,0.04646020,0.06586739,-0.06476566,-0.01229746,0.13089970,-0.28972465,0.34451380,0.12503429,0.77167273,0.03994393,
2006,2.73984909,0.09181905,14.71695709,6.00000000,0.09829102,-0.11601563,-0.59145027,-0.10300785,0.16726603,0.07000000,0.01150183,0.03361147,-0.00094692,0.00258017,-0.01229746,0.13788101,-0.25307274,-0.10301375,0.11773615,0.77167273,0.00665886,
2014,0.84364134,2.28490782,19.10074043,6.00000000,0.00644531,-0.00483398,-0.30620220,-0.37080264,0.13862132,0.07000000,0.01150183,0.01645227,-0.05057611,0.05241650,-0.01229746,-0.17802358,0.12217305,-0.37064990,0.10739970,0.76678872,-0.03751005,
2022,-0.28402767,1.38708222,20.61567116,6.00000000,-0.07573242,0.09184571,-0.01722363,-0.49603999,0.06587706,0.07000000,0.01150183,0.10167313,-0.07305828,0.07765317,-0.01229746,-0.76096350,0.41364303,-0.49584049,0.10546350,0.76678872,-0.07799292,
2030,0.61858636,0.75740713,18.82061958,6.00000000,-0.10151367,0.13374023,0.17356351,-0.62394196,-0.10585802,0.07000000,0.01150183,0.18441194,-0.09708235,0.10436843,-0.01229746,-1.66678941,1.03672564,-0.62386799,0.10079517,0.73260069,-0.14224315,
2038,-0.92567372,0.85078096,14.83906174,6.00000000,-0.14179687,0.18208008,0.36928022,-0.51242745,-0.17300655,0.07000000,0.01150183,0.17933361,-0.10227610,0.10959247,-0.01229746,-2.70002437,2.08741379,-0.51214808,0.09385721,0.73260069,-0.20923446,
2045,-3.30072188,0.51559275,10.14403152,5.00000000,-0.15468749,0.20625000,0.41990808,-0.12059438,-0.21897134,0.07000000,0.01150183,0.13428044,-0.06706244,0.07270317,-0.01229746,-3.30041766,2.84139609,-0.12076294,0.08684456,0.73260069,-0.22979063,
2054,-3.24565530,-0.41575170,5.14493895,6.00000000,-0.10957031,0.12890625,0.39645937,0.33279154,-0.15422095,0.07000000,0.01150183,0.02861141,-0.00765042,0.00956488,-0.01229746,-3.74547672,3.64773822,0.33277944,0.09483011,0.73015881,-0.24220036,
2062,-3.65985203,-0.80361241,2.00614047,6.00000000,-0.01127930,0.02255859,0.32091725,0.81841946,-0.11158697,0.07000000,0.01150183,0.04802319,0.06330253,-0.06180881,-0.01229746,-3.55349040,3.38942933,0.81839538,0.09886165,0.73015881,-0.19103163,
2070,-1.69900084,-1.28963530,0.51934111,6.00000000,0.07895508,-0.09345703,0.23498312,1.04850972,-0.10652418,0.07000000,0.00766789,0.03673552,0.11825521,-0.11781591,-0.01229746,-2.92168117,2.79601741,1.04870129,0.11006134,0.69597077,-0.13033243,
2078,0.17087065,-0.43011692,-0.32581207,6.00000000,0.17563477,-0.20463867,0.14931542,0.94418979,-0.02978298,0.07000000,0.00766789,0.13343263,0.12912241,-0.12621516,-0.01229746,-1.86401165,1.40848064,0.94447219,0.11816726,0.69597077,-0.04980933,
2086,0.34804156,-0.64798927,1.42913771,6.00000000,0.18530273,-0.22236328,0.02660945,0.49746540,0.04202866,0.07000000,0.01150183,0.18132269,0.10352231,-0.09922892,-0.01229746,-0.32637659,-0.29321530,0.49796528,0.12589738,0.66666675,0.03466038,
2094,0.25706190,-2.74291587,5.66448069,6.00000000,0.16113281,-0.17724609,-0.52789903,0.46562311,-0.05483045,0.07000000,0.01150183,0.20581914,0.11276850,-0.10799805,-0.01229746,0.56723201,-1.27059972,0.46577331,0.12775105,0.66666675,0.09969884,
2102,-1.64872265,-0.61447042,13.46239567,6.00000000,0.16435547,-0.19497070,-0.45488822,0.13520961,0.16060448,0.07000000,0.01150183,0.07197300,0.08621101,-0.08499163,-0.01229746,1.54810703,-1.79419851,0.13520995,0.13198574,0.63492060,0.13005961,
2110,1.66006410,0.42940149,14.53020954,6.00000000,0.13374023,-0.16757813,-0.42690969,-0.22611354,0.21189849,0.07000000,0.01150183,0.05153599,0.01766612,-0.01611124,-0.01229746,1.65457213,-1.83085036,-0.22601759,0.11149370,0.63492060,0.10921400,
2117,-1.45718646,1.79170227,19.78787613,5.00000000,0.03383789,-0.03706055,-0.47087598,-0.47965258,0.17832422,0.07000000,0.01150183,-0.00052926,-0.02174730,0.02238008,-0.01229746,1.49574709,-1.49400187,-0.47954071,0.10918126,0.63492060,0.07310809,
2126,-0.69104195,2.14843822,20.61567116,6.00000000,-0.01450195,0.03383789,-0.11794646,-0.61181796,0.13089390,0.07000000,0.01150183,0.04589090,-0.04917078,0.05149520,-0.01229746,0.77492619,-0.93200582,-0.61167580,0.10015294,0.59584856,0.01740659,
2134,0.59703857,0.80289698,19.40719795,6.00000000,-0.06123047,0.08540039,0.10055279,-0.69388843,-0.01552723,0.07000000,0.01150183,0.22986639,-0.08827510,0.09643326,-0.01229746,-0.57421333,-0.21118484,-0.69378948,0.08259925,0.59584856,-0.06301548,
2142,-1.63196325,1.21948802,14.85342693,6.00000000,-0.12890625,0.17724609,0.32584682,-0.57504618,-0.12850733,0.07000000,0.01150183,0.22523928,-0.08212243,0.09010334,-0.01229746,-1.42244339,0.65275317,-0.57486063,0.07765283,0.55921865,-0.11611310,
2150,-2.73808432,0.00802199,9.64364338,6.00000000,-0.12568359,0.16918945,0.40805051,-0.28926513,-0.15235573,0.07000000,0.01150183,0.17472619,-0.05580262,0.06206212,-0.01229746,-1.92335284,1.32645023,-0.28897798,0.07437681,0.55921865,-0.13781464,
2158,-2.74766111,-0.24097499,4.69482899,6.00000000,-0.08378907,0.10795899,0.35888818,0.13827392,-0.12344453,0.07000000,0.01150183,0.14860433,0.01017731,-0.00558019,-0.01229746,-2.30383468,1.79594386,0.13817918,0.07933149,0.49816847,-0.13762231,
2166,-4.44036198,-1.13401222,2.20964742,6.00000000,0.00161133,0.00161133,0.26442721,0.57327396,-0.05896062,0.07000000,0.01150183,0.06340950,0.08211552,-0.08090930,-0.01229746,-1.98618472,1.76976395,0.57329530,0.09255016,0.49816847,-0.09393234,
2174,-2.40050197,-1.53863227,0.63665700,6.00000000,0.11118164,-0.13051757,0.12306887,0.88263696,-0.02378757,0.07000000,0.01150183,0.05710650,0.16463432,-0.16485836,-0.01229746,-0.95294976,0.75747293,0.88287592,0.11570249,0.46642256,0.00198397,
2182,1.89948428,-0.53067338,-1.34095359,6.00000000,0.23686524,-0.29326171,-0.01042883,0.57660478,0.03203632,0.07000000,0.01150183,0.08009546,0.14061278,-0.14000168,-0.01229746,0.38920841,-0.66322511,0.57687289,0.11506742,0.46642256,0.07941676,
2189,-0.89933753,-0.26252279,2.42991400,5.00000000,0.19980469,-0.25458986,-0.09063405,0.20542246,0.09558763,0.07000000,0.01150183,0.12293468,0.11522968,-0.11321327,-0.01229746,1.77674520,-2.19736958,0.20580107,0.12004509,0.46642256,0.15788910,
2198,0.16608223,-2.81474185,6.25345421,6.00000000,0.17885742,-0.20302734,-0.51164478,0.14666750,-0.03924239,0.07000000,0.01150183,0.18590301,0.11725404,-0.11357290,-0.01229746,2.55341673,-3.18871641,0.14674836,0.11809144,0.46398044,0.21728587,
2206,-0.45641020,0.03675241,13.37380981,6.00000000,0.16596679,-0.22075196,-0.35056823,-0.22318245,0.13169327,0.07000000,0.01150183,0.10726728,0.07427913,-0.07231873,-0.01229746,3.39815593,-3.76467514,-0.22319327,0.11640425,0.46398044,0.24178848,
2214,3.05109525,-0.06140986,14.77202415,6.00000000,0.12890625,-0.13696289,-0.30900007,-0.63313496,0.14008686,0.07000000,0.00766789,0.10521915,0.01902092,-0.01627159,-0.01229746,3.39292002,-3.75245786,-0.63304913,0.11508293,0.46398044,0.21165609,
2222,-1.37338948,1.48524439,20.53965569,6.00000000,0.03222656,-0.03383789,-0.31699392,-0.89693278,0.17699189,0.07000000,0.00766789,0.06687799,-0.02519053,0.02747334,-0.01229746,3.18697143,-3.41560936,-0.89667892,0.10957430,0.46398044,0.17312971,
2230,0.80772829,0.69515789,20.61567116,6.00000000,-0.02094727,0.03544922,-0.09609653,-0.97114271,0.12463205,0.07000000,0.00766789,0.10067755,-0.05655626,0.06029171,-0.01229746,2.37539315,-2.71922302,-0.97088939,0.09719465,0.46398044,0.11350860,
2238,-0.24093205,0.49404493,19.58915710,6.00000000,-0.08056641,0.10312500,-0.00603220,-1.02843213,0.02071166,0.07000000,0.00766789,0.10774361,-0.09297681,0.09751365,-0.01229746,1.23394775,-1.60221231,-1.02807772,0.08251907,0.46398044,0.02809211,
2246,-1.19382429,1.39905322,13.61562443,6.00000000,-0.13212891,0.17241211,0.20487285,-0.77009666,-0.15302187,0.07000000,0.01150183,0.13798925,-0.07654594,0.08168939,-0.01229746,-0.03141592,-0.43982297,-0.76967525,0.07437574,0.43223453,-0.04072444,
2254,-3.83702302,0.69276369,9.54308701,6.00000000,-0.12084961,0.14985351,0.33717149,-0.27447644,-0.20897900,0.07000000,0.01150183,0.06671273,-0.02977971,0.03234746,-0.01229746,-0.53930676,0.31066859,-0.27471244,0.06525004,0.43223453,-0.05036874,
2261,-2.61119175,0.02717561,2.71482396,5.00000000,-0.05317383,0.06445312,0.41711023,0.12854804,-0.25001425,0.07000000,0.01150183,0.09038061,0.02726906,-0.02476605,-0.01229746,-0.87266463,0.56374133,0.12823954,0.07217321,0.43223453,-0.04246256,
2270,-3.66942883,-1.55778587,1.43153191,6.00000000,0.03383789,-0.03867187,0.32451451,0.50172877,-0.22803107,0.07000000,0.00766789,0.08578728,0.09756296,-0.09613694,-0.01229746,-0.30019665,0.00698132,0.50186217,0.07902397,0.38827848,0.02511301,
2278,-1.29198658,-0.43251112,-0.34257150,6.00000000,0.14018555,-0.16918945,0.14998157,0.62030458,-0.14862524,0.07000000,0.00766789,0.02968150,0.12220824,-0.12277102,-0.01229746,0.53232545,-0.63355452,0.62044400,0.08006543,0.38827848,0.08663858,
2286,-0.30796969,-1.48595989,0.81861633,6.00000000,0.16918945,-0.21269532,0.07563855,0.40367058,0.00059375,0.07000000,0.00766789,-0.03733121,0.11745645,-0.12000941,-0.01229746,1.65631747,-1.52890837,0.40382558,0.08544772,0.34676433,0.14374170,
2294,-1.08369100,-1.07655144,3.29422092,6.00000000,0.17724609,-0.22236328,-0.04573512,0.18303964,0.06028134,0.07000000,0.00766789,-0.05627704,0.10440817,-0.10742610,-0.01229746,2.72445917,-2.53247285,0.18301255,0.08907099,0.34676433,0.20243037,
2302,0.63534576,-2.57292747,6.67962217,6.00000000,0.15146485,-0.18852539,-0.42677647,0.11922187,-0.03870947,0.07000000,0.00766789,-0.03529115,0.10877116,-0.11132615,-0.01229746,3.34754157,-3.22711372,0.11928076,0.09262088,0.34188032,0.24527264,
2310,0.06552577,-0.47800094,13.18227386,6.00000000,0.16596679,-0.21591797,-0.34177491,-0.18241368,0.11064275,0.07000000,0.00766789,-0.13381864,0.07268055,-0.07760847,-0.01229746,4.20624352,-3.74896717,-0.18229334,0.08945595,0.34188032,0.27325651,
2318,1.25304985,0.22110595,15.99785519,6.00000000,0.12084961,-0.14179687,-0.36882088,-0.54959899,0.06481121,0.07000000,0.00766789,-0.03428847,0.01763213,-0.01906899,-0.01229746,4.20973396,-4.09279728,-0.54943299,0.07433345,0.30769229,0.25932845,
2326,0.13016921,2.33039761,20.30502319,6.00000000,0.02578125,-0.03867187,-0.25184387,-0.75837231,0.06241304,0.07000000,0.00766789,-0.03013504,-0.02313258,0.02237817,-0.01229746,4.02123833,-3.91826415,-0.75806141,0.06368355,0.30769229,0.23124045,
2333,0.93940938,1.56904149,20.61567116,5.00000000,-0.02094727,0.02094727,-0.02162026,-0.89946425,0.02497507,0.07000000,0.00766789,0.03064651,-0.04987466,0.05127135,-0.01229746,3.15730047,-3.26202035,-0.89929986,0.06367727,0.30769229,0.16635159,
2342,-1.59126186,0.57065940,19.37128448,6.00000000,-0.06445312,0.09023438,0.06311481,-0.88600785,-0.11838175,0.07000000,0.00766789,0.08322295,-0.05697397,0.05999803,-0.01229746,2.11184835,-2.39633703,-0.88566011,0.05961336,0.27106237,0.09853116,
2350,-0.98552877,0.49883333,13.47436619,6.00000000,-0.07573242,0.09990235,0.27908266,-0.74731410,-0.19419034,0.07000000,0.00766789,0.06947316,-0.05928366,0.06206002,-0.01229746,1.03323495,-1.27059972,-0.74734771,0.05289588,0.27106237,0.02913369,
2358,-3.85857081,0.45334351,9.17916870,6.00000000,-0.08056641,0.10473633,0.34023577,-0.24556528,-0.24428527,0.07000000,0.00766789,0.04295748,0.00746794,-0.00625424,-0.01229746,0.25307274,-0.39968041,-0.24563587,0.06341197,0.27106237,0.00581834,
2366,-3.90884900,0.05830023,4.27584362,6.00000000,0.00966797,-0.00966797,0.32105049,0.28149754,-0.24655020,0.07000000,0.00766789,-0.00100584,0.07929361,-0.08025153,-0.01229746,-0.00174533,0.00523599,0.28147036,0.07022637,0.27106237,0.02001363,
2374,-2.30712819,-1.34470201,0.76833808,6.00000000,0.11762695,-0.14663085,0.23351757,0.61870581,-0.18473092,0.07000000,0.00766789,-0.02502273,0.13177705,-0.13415852,-0.01229746,0.40840703,-0.32288590,0.61880136,0.07338646,0.26617837,0.07088097,
2382,-2.09883261,-0.82276601,0.51215851,6.00000000,0.19335937,-0.24008790,0.09509031,0.78271341,-0.12051345,0.07000000,0.00766789,-0.03173086,0.17502174,-0.17826344,-0.01229746,1.33866751,-1.23045707,0.78293616,0.08362235,0.26617837,0.14884311,
2390,0.62098056,-1.61285257,-0.08399771,6.00000000,0.24975586,-0.30937499,-0.04426958,0.40486968,-0.00380288,0.07000000,0.00766789,-0.01318671,0.15215881,-0.15475687,-0.01229746,2.77856421,-2.73318577,0.40486410,0.08746835,0.23687434,0.22758335,
2398,-0.50190002,-1.48595989,2.89678335,6.00000000,0.22075196,-0.28037110,-0.15551767,0.12095386,-0.00753336,0.07000000,0.00766789,0.09243953,0.13671787,-0.13626862,-0.01229746,4.08407068,-4.39997530,0.12094229,0.08991135,0.23687434,0.31414455,
2405,1.35600054,-1.64397717,6.89031172,5.00000000,0.21430664,-0.25297850,-0.42624354,-0.00601551,-0.11931437,0.07000000,0.00766789,0.23347527,0.13418028,-0.12981215,-0.01229746,4.91310167,-5.71071768,-0.00603241,0.08931009,0.23687434,0.38201597,
2414,0.12777501,-0.09014028,14.25248241,6.00000000,0.20302734,-0.23525390,-0.26037064,-0.47472304,-0.01552723,0.07000000,0.00766789,0.13739440,0.08427632,-0.08209126,-0.01229746,5.90444851,-6.37394285,-0.47460148,0.08648561,0.20024419,0.40784881,
2422,2.61056209,0.43658409,16.36177444,6.00000000,0.14018555,-0.14824219,-0.22386530,-1.03669250,-0.01672632,0.07000000,0.00766789,0.12679482,-0.00589085,0.00897857,-0.01229746,5.97600746,-6.40884924,-1.03650498,0.07051413,0.20024419,0.37123284,
2430,-0.05657852,0.28574938,20.61567116,6.00000000,0.00000000,0.00805664,-0.13126957,-1.35391605,0.09612055,0.07000000,0.00766789,-0.07565564,-0.05756541,0.05554831,-0.01229746,6.02836704,-5.77005863,-1.35340142,0.05555027,0.12698412,0.32728258,
2438,-0.55217826,-1.31836569,20.61567116,6.00000000,-0.07412110,0.09990235,-0.22932777,-1.44211507,-0.01885801,0.07000000,0.00766789,0.02298455,-0.09106588,0.09239024,-0.01229746,4.83630753,-4.91484737,-1.44151270,0.04504405,0.12698412,0.24724814,
2446,0.19241846,0.42940149,18.56683350,6.00000000,-0.12246094,0.15468749,-0.10928641,-1.37057006,-0.10066200,0.07000000,0.00766789,-0.00048556,-0.10628085,0.10724109,-0.01229746,3.48891306,-3.48716784,-1.37002850,0.03280059,0.09523821,0.15249826,
2454,-3.23847246,0.91063601,14.68104458,6.00000000,-0.15468749,0.19335937,0.28867531,-0.93770158,-0.20338328,0.07000000,0.00766789,0.03512993,-0.07246251,0.07410149,-0.01229746,2.21133208,-2.33175993,-0.93750846,0.02437052,0.09523821,0.09605196,
2462,-2.71653652,0.65685064,7.11057854,6.00000000,-0.10473633,0.12568359,0.39006427,-0.39664951,-0.31623018,0.07000000,-0.00383413,0.06465650,-0.01276566,0.01483483,-0.01229746,1.02799892,-1.24965572,-0.39682055,0.02060323,0.06105018,0.05345560,
2470,-4.02855921,-0.05901565,3.08592534,6.00000000,-0.01933594,0.02416992,0.44495556,0.18184055,-0.32369110,0.07000000,-0.00383413,-0.02101582,0.06146808,-0.06276247,-0.01229746,0.64402652,-0.57246798,0.18161109,0.02615318,0.06105018,0.05688949,
2477,-2.77399755,-2.23773909,0.88086557,5.00000000,0.08378907,-0.10634766,0.29999995,0.62976396,-0.24148741,0.07000000,-0.00383413,0.00964830,0.13027921,-0.13164254,-0.01229746,0.75747293,-0.79063416,0.62967497,0.03333381,0.06105018,0.10106637,
2486,-2.11319780,-0.75572836,-0.05766149,6.00000000,0.19174805,-0.22880860,0.10108571,0.87757409,-0.23495911,0.07000000,-0.00383413,0.03463770,0.18768874,-0.18928023,-0.01229746,1.84655845,-1.96524072,0.87793893,0.03720154,0.01953602,0.20044714,
2494,1.35600054,-1.64158297,-1.02252483,6.00000000,0.26586914,-0.34482422,-0.04839975,0.52904117,-0.05389783,0.07000000,-0.00383413,0.09103248,0.16211848,-0.16192062,-0.01229746,3.24282169,-3.55349040,0.52943444,0.03867587,0.01953602,0.28278255,
2502,-0.24572045,0.38870007,1.72362459,6.00000000,0.23686524,-0.29326171,-0.15724969,0.14093855,-0.09000350,0.07000000,-0.00383413,0.18333250,0.13794158,-0.13497975,-0.01229746,4.72809696,-5.35467005,0.14088851,0.04347532,0.01465201,0.37313551,
2510,-1.53619516,-3.28400540,7.27577829,6.00000000,0.20463867,-0.25297850,-0.31379640,0.08937806,-0.18166660,0.07000000,-0.00383413,0.34795797,0.14390489,-0.13649371,-0.01229746,5.77005863,-6.95862818,0.08987627,0.03832584,0.01465201,0.46468768,
2518,2.62971568,1.59298348,10.48879719,6.00000000,0.19819336,-0.24814454,-0.19988367,-0.50789762,-0.16447976,0.07000000,0.00766789,0.28498614,0.06759664,-0.06133179,-0.01229746,6.47168064,-7.44557476,-0.50783634,0.03463182,0.01465201,0.46446928,
2526,3.08700824,1.42538941,16.85258484,6.00000000,0.10957031,-0.11118164,-0.10342425,-0.95129114,-0.10652418,0.07000000,0.00766789,0.14664818,-0.00289688,0.00617079,-0.01229746,6.92546606,-7.42637587,-0.95111519,0.02240286,0.01465201,0.44820282,
2534,1.61218011,-0.21942717,20.61567116,6.00000000,0.00483398,-0.00966797,-0.13673207,-1.45743680,0.06108073,0.07000000,0.00766789,-0.08928496,-0.09044920,0.08826298,-0.01229746,6.85739851,-6.55196571,-1.45712495,0.01052203,0.01221013,0.37783092,
2542,2.22509575,-1.15795422,20.61567116,6.00000000,-0.11279297,0.14179687,-0.35190052,-1.46329880,-0.03431284,0.07000000,0.00766789,-0.03678184,-0.12777226,0.12767895,-0.01229746,5.72642517,-5.60076141,-1.46277106,-0.01299016,0.01221013,0.30247098,
2549,-0.88018388,0.37672904,20.61567116,5.00000000,-0.18046875,0.22075196,-0.30953297,-1.42785931,-0.07761300,0.07000000,0.00766789,-0.13241333,-0.15110320,0.14877436,-0.01229746,4.29874611,-3.84670568,-1.42732704,-0.02020777,0.01221013,0.19047117,
2558,-1.79237473,2.35194540,15.72731018,6.00000000,-0.21914062,0.26103514,0.14798312,-0.82938451,-0.21537411,0.07000000,0.00766789,-0.16590063,-0.10202740,0.09827624,-0.01229746,2.51676464,-1.94953275,-0.82917720,-0.02719321,0.00976801,0.10109973,
2566,-3.06369591,1.78451967,8.38668823,6.00000000,-0.14824219,0.18208008,0.39565998,-0.25635698,-0.38444456,0.07000000,0.00766789,-0.08787784,-0.04232687,0.04013005,-0.01229746,0.92327923,-0.62308258,-0.25646818,-0.02638172,0.00976801,0.03720448,
2574,-3.81786942,0.35996965,3.12662673,6.00000000,-0.06284180,0.08217774,0.58458191,0.39607641,-0.34847212,0.07000000,0.00766789,-0.10271229,0.05310506,-0.05694067,-0.01229746,0.34906584,0.00174533,0.39607602,-0.01017725,0.00976801,0.04102250,
2582,-2.74526691,-2.72615623,0.52652371,6.00000000,0.07250977,-0.08862305,0.38180396,0.88170427,-0.23016278,0.07000000,0.00766789,0.00143925,0.12892988,-0.13086551,-0.01229746,0.50789082,-0.51312679,0.88167572,-0.00393842,0.00976801,0.10023323,
2590,-1.39733148,-1.47638309,-0.37130192,6.00000000,0.19174805,-0.22880860,0.12173656,1.07169199,-0.23016278,0.07000000,0.00766789,0.08069320,0.17743462,-0.17788784,-0.01229746,1.45734990,-1.73311198,1.07221210,0.00458738,0.00732613,0.19206353,
2598,1.25783825,-3.28161120,-1.41517389,6.00000000,0.24653320,-0.31904298,-0.16377798,0.77192169,-0.03111529,0.07000000,0.00766789,0.10466600,0.15651707,-0.15615219,-0.01229746,2.82743335,-3.18522596,0.77237540,0.00577306,0.00732613,0.27206421,
2606,0.88913113,0.35996965,0.19612388,6.00000000,0.23364258,-0.28520507,-0.41158807,0.44630459,-0.06588864,0.07000000,0.00766789,0.20838487,0.14062354,-0.13727978,-0.01229746,4.33714342,-5.04923725,0.44672036,0.01072487,0.00732613,0.37006325,
2614,-1.82589352,0.66163903,5.65490389,6.00000000,0.21430664,-0.25136718,-0.16164631,0.29695237,-0.08640625,0.07000000,0.00766789,0.25483069,0.14920145,-0.14480105,-0.01229746,5.67930126,-6.55022049,0.29697511,0.02074050,0.00732613,0.46163550,
2621,0.17805324,-0.39180970,8.83919239,5.00000000,0.24008790,-0.27231446,-0.33817771,0.11629076,-0.20644762,0.07000000,0.00766789,0.40858924,0.13911997,-0.13030903,-0.01229746,6.16101217,-7.55727577,0.11594142,0.02320905,0.00732613,0.50217402,
2630,0.95856303,1.20272863,16.40247536,6.00000000,0.20302734,-0.23041992,0.02794176,-0.59489763,-0.11744913,0.07000000,0.00766789,0.32384011,0.04972112,-0.04218914,-0.01229746,7.06858349,-8.17512226,-0.59485352,0.01940337,0.00732613,0.50595880,
2638,4.04229498,-0.25534019,19.13904762,6.00000000,0.07250977,-0.09345703,-0.04893266,-1.25572467,-0.03404637,0.07000000,0.00766789,0.19412261,-0.05626462,0.06155895,-0.01229746,7.15061426,-7.81383944,-1.25546348,0.00449641,0.00732613,0.44833288,
2646,3.72626019,-0.74854577,20.61567116,6.00000000,-0.06445312,0.09990235,-0.19135687,-1.57881045,0.08599497,0.07000000,0.00766789,-0.12919855,-0.12992531,0.12712221,-0.01229746,7.01098776,-6.56941938,-1.57823086,-0.01369448,0.00244212,0.37526810,
2654,-0.14995238,-3.35822558,20.61567116,6.00000000,-0.17241211,0.22880860,-0.58732015,-1.58800340,-0.00100503,0.07000000,0.00766789,-0.14346685,-0.16145390,0.15881714,-0.01229746,5.55363798,-5.06320047,-1.58749509,-0.02543132,0.00244212,0.26790690,
2662,-1.42366767,2.59615397,19.49338913,6.00000000,-0.22397462,0.27231446,-0.23718843,-1.18178129,-0.12864056,0.07000000,0.00766789,-0.27121699,-0.13548884,0.12906834,-0.01229746,3.98633194,-3.05956221,-1.18111110,-0.02944310,0.00244212,0.16861990,
2670,-2.38853097,1.10696054,11.65956116,6.00000000,-0.19658203,0.23364258,0.20633841,-0.54826665,-0.29144913,0.07000000,0.00766789,-0.13181476,-0.08045278,0.07742485,-0.01229746,1.91288078,-1.46258593,-0.54816985,-0.03709390,0.00244212,0.08205586,
2678,-3.49704647,1.78930807,5.22873592,6.00000000,-0.12407227,0.14179687,0.57725418,0.09817132,-0.41322252,0.07000000,0.00766789,-0.10606129,-0.01289923,0.00981862,-0.01229746,0.65973443,-0.29670596,0.09770477,-0.04005330,0.00244212,0.04147383,
2686,-3.47310424,-2.68066645,1.58715510,6.00000000,-0.02255859,0.02739258,0.56060028,0.68798608,-0.28505406,0.07000000,0.00766789,-0.05771728,0.08161943,-0.08456463,-0.01229746,0.22514747,-0.02792527,0.68792456,-0.02062714,0.00244212,0.05863953,
2693,-1.96715152,-1.75889885,-0.10075712,5.00000000,0.10795899,-0.13857421,0.27042264,1.03039026,-0.25694227,0.07000000,0.00766789,0.05422259,0.14577711,-0.14646056,-0.01229746,0.49916416,-0.68416905,1.03053606,-0.00924189,0.00244212,0.11680552,
2702,-0.50429422,-2.17070150,-0.78071040,6.00000000,0.20625000,-0.26425782,0.04672737,1.06236589,-0.13063902,0.07000000,0.00766789,-0.03984273,0.17858489,-0.18252282,-0.01229746,2.20784140,-2.07170582,1.06292462,0.00154676,0.00244212,0.23058422,
2710,0.15411124,-1.39019179,0.20091230,6.00000000,0.25458986,-0.31904298,-0.15938139,0.83587271,-0.01392846,0.07000000,0.00766789,-0.00970661,0.17573085,-0.17893034,-0.01229746,3.67915416,-3.64599276,0.83629352,0.00937443,0.00244212,0.32390320,
2718,2.13411593,0.20674074,0.50976431,6.00000000,0.26264650,-0.31420898,-0.22160035,0.42938420,-0.09693152,0.07000000,0.00766789,0.08451774,0.14487645,-0.14517094,-0.01229746,5.26914883,-5.55712843,0.42945433,0.00966750,0.00244212,0.42065957,
2726,-0.53541887,-1.21062672,5.27422571,6.00000000,0.21752930,-0.26103514,0.01381925,0.17384666,-0.04177379,0.07000000,0.00766789,0.25295132,0.13301781,-0.12851650,-0.01229746,6.26573181,-7.12967014,0.17394626,0.01339600,0.00244212,0.49478170,
2734,4.31762791,1.74860668,8.49921513,6.00000000,0.19013672,-0.24653320,-0.30060649,-0.23637234,-0.25121331,0.07000000,0.00766789,0.46525949,0.08189549,-0.07076739,-0.01229746,6.55371141,-8.14370632,-0.23609357,0.00575832,0.00244212,0.51210064,
2742,0.67844141,-0.22421557,19.07919312,6.00000000,0.12568359,-0.13696289,0.04299689,-0.70454687,-0.07374929,0.07000000,0.00766789,0.20734769,0.01637208,-0.01171333,-0.01229746,7.48920774,-8.19781208,-0.70442164,-0.00019908,0.00244212,0.51401091,
2750,3.96089196,-0.55222118,20.61567116,6.00000000,0.03867187,-0.03383789,-0.03734155,-1.35311663,0.10664582,0.07000000,0.01150183,-0.04543053,-0.09421671,0.09314837,-0.01229746,7.38274288,-7.22740841,-1.35264468,-0.01479701,0.00244212,0.42857817,
2758,2.21551895,-1.79002345,20.61567116,6.00000000,-0.13051757,0.15146485,-0.34337372,-1.45543826,0.03176986,0.07000000,0.01150183,-0.11851671,-0.13221660,0.12968469,-0.01229746,6.55545664,-6.15054035,-1.45488715,-0.02630120,0.00244212,0.35265726,
2765,-1.08369100,0.08224224,20.61567116,5.00000000,-0.18530273,0.22719726,-0.54322058,-1.45157456,-0.02218880,0.07000000,0.01150183,-0.14874826,-0.16014537,0.15728292,-0.01229746,5.08938026,-4.58148909,-1.45087004,-0.03567281,0.00244212,0.24370408,
2774,-1.20818949,2.50038600,16.61077118,6.00000000,-0.22236328,0.28842774,0.02927407,-0.91305381,-0.13370335,0.07000000,0.01150183,-0.14508280,-0.12490353,0.12186560,-0.01229746,3.17998981,-2.68431640,-0.91280174,-0.04767001,0.00244212,0.14539945,
2782,-3.74125504,1.93296015,10.60611248,6.00000000,-0.18369141,0.21752930,0.30999231,-0.22891138,-0.36099583,0.07000000,0.01150183,-0.01270722,-0.04451565,0.04430396,-0.01229746,1.37008345,-1.32645023,-0.22893822,-0.04043391,0.00244212,0.08059588,
2790,-3.53535366,0.18040451,3.51209331,6.00000000,-0.07734375,0.07412110,0.66731852,0.36263537,-0.36752418,0.07000000,0.01150183,-0.12834787,0.01733061,-0.02154705,-0.01229746,0.64228117,-0.20420352,0.36250776,-0.04334660,0.00244212,0.05657289,
2798,-3.07327271,-2.70939684,0.83776993,6.00000000,0.01611328,-0.03706055,0.46467379,0.95045155,-0.24401882,0.07000000,0.01150183,-0.11904947,0.11383364,-0.11908130,-0.01229746,0.64053583,-0.23387411,0.95053399,-0.02537096,0.00244212,0.09991811,
2806,-1.92645001,-2.21619129,-0.00977746,6.00000000,0.15791015,-0.20947266,0.09549000,1.23170257,-0.23882280,0.07000000,0.01150183,-0.13121785,0.18080248,-0.18738319,-0.01229746,1.57428694,-1.12573731,1.23205495,-0.00714096,0.00244212,0.18590379,
2814,0.15889964,-2.39815068,-1.27391601,6.00000000,0.26909178,-0.33032227,-0.16950694,1.13804114,-0.09892999,0.07000000,0.01150183,-0.08837014,0.19421256,-0.19989085,-0.01229746,2.80299878,-2.50105691,1.13857830,0.00185979,0.00244212,0.27292603,
2822,0.69759500,-0.61447042,-0.14145856,6.00000000,0.28842774,-0.36416015,-0.33951002,0.69784516,-0.02538635,0.07000000,0.01150183,0.04798964,0.16928922,-0.17097646,-0.01229746,4.57450819,-4.73856878,0.69841850,0.00845733,0.00244212,0.38554773,
2830,-0.42528558,0.55390000,2.68609357,6.00000000,0.25458986,-0.31743163,-0.24704751,0.16225554,-0.20364976,0.07000000,0.01150183,0.15248682,0.12990874,-0.12829435,-0.01229746,6.20289993,-6.72300863,0.16221684,0.01595569,0.00244212,0.47702855,
2837,0.61619216,-1.80917704,6.80172634,5.00000000,0.20625000,-0.22880860,0.02421129,0.17477928,-0.21270949,0.07000000,0.01150183,0.28760481,0.14641468,-0.14129806,-0.01229746,6.98829842,-7.97091913,0.17478149,0.01672572,0.00244212,0.55111158,
2846,2.87153006,3.18033934,13.54858685,6.00000000,0.21430664,-0.26425782,0.01848234,-0.44101548,-0.34327608,0.07000000,0.01150183,0.33809868,0.06214995,-0.05454301,-0.01229746,7.57123804,-8.72664642,-0.44098082,0.00524093,0.00244212,0.55497736,
2854,2.39268970,-0.32477203,19.82139587,6.00000000,0.09829102,-0.10957031,0.00435983,-1.00618255,-0.22563291,0.07000000,0.01150183,0.16901655,-0.02245958,0.02639973,-0.01229746,8.01106167,-8.58876514,-1.00597465,-0.00407781,0.00244212,0.52516919,
2862,3.50120521,-2.05338573,20.61567116,6.00000000,-0.02578125,0.02739258,-0.16577646,-1.63676608,0.02524153,0.07000000,0.01150183,-0.11246474,-0.13342747,0.13095498,-0.01229746,7.82431078,-7.44033861,-1.63642168,-0.01944555,0.00244212,0.43170244,
2870,-0.04221331,-2.86262584,20.61567116,6.00000000,-0.19174805,0.22075196,-0.52763259,-1.66727602,-0.06082585,0.07000000,0.01150183,-0.20296828,-0.16453987,0.16004106,-0.01229746,6.80329323,-6.11039782,-1.66661417,-0.03062537,0.00244212,0.34489375,
2878,-1.47634017,1.16681564,20.61567116,6.00000000,-0.24169922,0.27070314,-0.41292042,-1.37323463,-0.11571713,0.07000000,0.01150183,-0.32138404,-0.16074330,0.15302478,-0.01229746,5.19933558,-4.10152388,-1.37251198,-0.04154374,0.00244212,0.23601118,
2886,-1.96236312,2.06224704,14.95158863,6.00000000,-0.23203126,0.27553710,0.08856198,-0.77342749,-0.30104178,0.07000000,0.01150183,-0.20841315,-0.11139045,0.10640372,-0.01229746,3.05607152,-2.34397721,-0.77329201,-0.04873182,0.00244212,0.13872924,
2894,-2.98229289,1.89944136,7.40506506,6.00000000,-0.16757813,0.18852539,0.48958802,-0.16269547,-0.48769876,0.07000000,0.01533577,-0.14595647,-0.04289228,0.03879486,-0.01229746,1.46433127,-0.96516705,-0.16282058,-0.04375014,0.00244212,0.07574076,
2902,-3.54732466,-0.71502692,2.95663834,6.00000000,-0.06445312,0.06767578,0.75045478,0.49560013,-0.42494681,0.07000000,0.01533577,-0.26824385,0.03803656,-0.04660171,-0.01229746,0.93026048,-0.01396263,0.49539304,-0.03888693,0.00244212,0.06966933,
2910,-2.33346438,-2.78840566,0.37568903,6.00000000,0.06284180,-0.07573242,0.43749461,0.96350825,-0.32968652,0.07000000,0.01533577,-0.13940959,0.11621733,-0.12218770,-0.01229746,0.74001962,-0.26354474,0.96368873,-0.02515219,0.00244212,0.10550860,
2918,-1.40690827,-2.13478851,-0.27553385,6.00000000,0.16596679,-0.21752930,0.08269981,1.18387270,-0.27799278,0.07000000,0.01533577,-0.12465547,0.17054006,-0.17692433,-0.01229746,1.76103723,-1.33517683,1.18416452,-0.01316338,0.00244212,0.19672193,
2926,0.02961274,-2.13239431,-0.42636856,6.00000000,0.24492188,-0.31098634,-0.12833849,1.04144847,-0.10812295,0.07000000,0.01533577,-0.19410802,0.17853114,-0.18713626,-0.01229746,3.36848545,-2.70526028,1.04170918,-0.00380847,0.00244212,0.29365978,
2934,1.45895112,0.50122756,-0.03371948,6.00000000,0.25458986,-0.34643555,-0.30979946,0.71729696,-0.09799737,0.07000000,0.01533577,-0.05107882,0.16666773,-0.17124659,-0.01229746,4.91659260,-4.74205971,0.71765244,0.00303141,0.00244212,0.39939165,
2942,-1.75167334,1.32722712,4.75947237,6.00000000,0.23686524,-0.31259766,-0.08557127,0.32373184,-0.18020105,0.07000000,0.01533577,0.03592405,0.14685777,-0.14888300,-0.01229746,6.48738909,-6.60956192,0.32392821,0.01257688,0.00244212,0.49481949,
2950,2.66084051,-3.23851562,7.33563328,6.00000000,0.22236328,-0.26425782,-0.33857739,0.14839950,-0.30943534,0.07000000,0.01533577,0.30078250,0.13583630,-0.13032937,-0.01229746,7.14712334,-8.17512226,0.14844930,0.00783134,0.00244212,0.56229901,
2958,3.75020218,2.48602080,15.10481834,6.00000000,0.21108398,-0.24975586,0.09509031,-0.57238150,-0.22683200,0.07000000,0.01533577,0.28964370,0.02797856,-0.02141880,-0.01229746,7.95346546,-8.94306755,-0.57233107,-0.01341636,0.00244212,0.56708807,
2966,5.61289120,0.92739546,18.57401657,6.00000000,0.04350586,-0.04672851,-0.10022669,-1.27983940,-0.20871255,0.07000000,0.01533577,0.06424773,-0.09045979,0.09226593,-0.01229746,7.95346546,-8.17337704,-1.27959347,-0.03025645,0.00244212,0.48844948,
2974,0.03200695,-1.11964703,20.61567116,6.00000000,-0.12407227,0.14985351,-0.24038595,-1.74015331,-0.00500196,0.07000000,0.01533577,-0.27331418,-0.17279798,0.16622649,-0.01229746,7.80336714,-6.86961603,-1.73967767,-0.03828173,0.00244212,0.40297604,
2981,1.28417444,-1.74692786,20.61567116,5.00000000,-0.24169922,0.28037110,-0.54162180,-1.42359602,-0.09706476,0.07000000,0.01533577,-0.22733635,-0.16607763,0.16087206,-0.01229746,6.20289993,-5.42622852,-1.42287135,-0.05465710,0.00244212,0.31620455,
2990,-2.73329592,2.02872825,20.61567116,6.00000000,-0.23041992,0.29003906,-0.21613786,-1.00138628,-0.16607855,0.07000000,0.10735042,-0.36013317,-0.14876275,0.13717511,-0.01229746,4.33365250,-3.10319543,-1.00080562,-0.06397395,0.00244212,0.19565526,
2998,-0.80835783,1.88986456,11.71223450,6.00000000,-0.21430664,0.23525390,0.28374577,-0.46126667,-0.37152115,0.07000000,0.10735042,-0.20791417,-0.10031097,0.09257153,-0.01229746,2.16595364,-1.45560467,-0.46125031,-0.06563832,0.00244212,0.09720839,
3006,-3.73646665,1.61213708,6.65328598,6.00000000,-0.14663085,0.15629883,0.55540425,0.17584513,-0.47424242,0.07000000,0.30288157,-0.24831267,-0.02868985,0.01345096,-0.01229746,0.88488197,-0.03665191,0.17578667,-0.05856685,0.00244212,0.04581813,
3014,-2.22093678,-2.42927527,1.32618713,6.00000000,-0.04028320,0.02255859,0.57752067,0.79990029,-0.37711683,0.07000000,0.30288157,-0.25031984,0.06006986,-0.07650161,-0.01229746,0.36128318,0.49392816,0.79977536,-0.04611135,0.00244212,0.05279880,
3022,-2.14432240,-1.64876556,0.40681365,6.00000000,0.08701172,-0.13696289,0.21859567,1.14150524,-0.32009384,0.07000000,0.47540903,-0.06949817,0.12816943,-0.14531952,-0.01229746,0.45029494,-0.21293017,1.14160383,-0.02876518,0.00244212,0.10608351,
3030,-1.32789958,-1.72059166,-0.43355116,6.00000000,0.18208008,-0.25942382,0.01688356,1.22330916,-0.24108773,0.07000000,0.47540903,-0.05096786,0.16133779,-0.17851920,-0.01229746,1.54287112,-1.36833811,1.22394061,-0.02055648,0.00244212,0.19292371,
3038,-1.38296628,-1.22738612,0.91438442,6.00000000,0.22719726,-0.30937499,-0.09209959,1.18627083,-0.08254255,0.07000000,0.74378508,-0.01836027,0.19365753,-0.21812069,-0.01229746,3.26376581,-3.20093369,1.18667138,-0.00228099,0.00244212,0.31817773,
3046,3.45571542,0.32405663,-0.60832787,6.00000000,0.28198242,-0.38671875,-0.22373205,0.67932600,-0.08121023,0.07000000,0.74378508,0.19804943,0.15088657,-0.16883230,-0.01229746,4.68097305,-5.35816097,0.67994344,-0.00291123,0.00244212,0.41036350,
3053,-2.77878594,-1.12922382,6.81609154,5.00000000,0.22719726,-0.29165038,-0.06079026,0.47321731,-0.08587333,0.07000000,0.74378508,0.40549597,0.15974838,-0.17211819,-0.01229746,6.06676435,-7.45255613,0.47313726,0.00869407,0.00244212,0.52077413,
3062,4.12609196,1.39187062,7.98446178,6.00000000,0.23203126,-0.31904298,-0.32512105,-0.09341520,-0.27892539,0.07000000,1.01216114,0.65724075,0.10295553,-0.11513942,-0.01229746,6.64795923,-8.89419842,-0.09332943,0.01408073,0.00244212,0.55282730,
3070,3.15883446,-1.11007023,16.59640503,6.00000000,0.15307617,-0.21269532,-0.05745947,-0.67989916,-0.14729293,0.07000000,1.01216114,0.55332398,0.02496905,-0.03912646,-0.01229746,7.60439968,-9.49459076,-0.67982709,0.00574462,0.00244212,0.56661308,
3078,5.90737772,-0.18830255,20.61567116,6.00000000,0.04350586,-0.08217774,-0.03067999,-1.42133105,0.07000723,0.07000000,1.22302806,0.30499524,-0.10400616,0.07862141,-0.01229746,7.64977789,-8.69174004,-1.42099452,-0.01377868,0.00244212,0.48597974,
3086,1.95215666,-1.78523505,20.61567116,6.00000000,-0.14824219,0.12246094,-0.14179483,-1.83048415,0.22468871,0.07000000,1.22302806,0.01887643,-0.18774498,0.15547705,-0.01229746,7.22391748,-7.28849506,-1.82989693,-0.02804519,0.00244212,0.39070293,
3094,-1.15791130,-1.61524677,20.61567116,6.00000000,-0.27714843,0.26264650,-0.55041510,-1.69232345,0.15594138,0.07000000,1.44923079,0.07100135,-0.20026702,0.16339612,-0.01229746,5.59028959,-5.83289051,-1.69157803,-0.03727141,0.00244212,0.28943926,
3102,-1.36860108,1.04710555,18.49979591,6.00000000,-0.29487306,0.28842774,-0.16750848,-1.15939844,0.09212361,0.07000000,1.44923079,0.02656407,-0.16472504,0.12632731,-0.01229746,3.61457705,-3.70533395,-1.15921736,-0.04596628,0.00244212,0.18005936,
3110,-3.17382908,1.53073430,10.70427513,6.00000000,-0.23364258,0.22397462,0.32931083,-0.47299099,-0.06002647,0.07000000,1.50290596,0.12606451,-0.08571635,0.04774894,-0.01229746,1.50098312,-1.93207943,-0.47312117,-0.03509922,0.00244212,0.08951922,
3118,-3.78435063,1.26737213,3.99572206,6.00000000,-0.12084961,0.09184571,0.62495100,0.20595540,-0.12357777,0.07000000,1.50290596,0.19575533,-0.00834610,-0.02855806,-0.01229746,0.11693706,-0.78539819,0.20583183,-0.03285189,0.00244212,0.04731178,
3125,-1.91687322,-2.48434186,0.68454105,5.00000000,-0.01933594,-0.04028320,0.55647010,0.73141944,0.03656618,0.07000000,1.50290596,0.25745234,0.06663437,-0.10277665,-0.01229746,-0.17976892,-0.69987702,0.73147726,-0.02585609,0.00244212,0.07138757,
3134,-1.49070537,-1.03824413,-0.10793973,6.00000000,0.09184571,-0.17885742,0.31385601,1.04104877,0.06720937,0.07000000,1.63326013,0.34326586,0.12747920,-0.16578628,-0.01229746,0.58992130,-1.76278257,1.04143250,-0.01653425,0.00244212,0.15967582,
3142,0.27382132,-2.70700264,-0.80704665,6.00000000,0.18691406,-0.29809570,0.10974574,0.92953432,0.20856774,0.07000000,1.63326013,0.36776456,0.13417402,-0.17199640,-0.01229746,1.73834789,-2.99498510,0.92992580,-0.01013495,0.00244212,0.23735490,
3150,0.19241846,-1.44765270,0.16499926,6.00000000,0.19174805,-0.30454102,-0.13140279,0.80629545,0.31941611,0.07000000,1.63709402,0.57373202,0.14693603,-0.17936188,-0.01229746,2.90597320,-4.86597776,0.80661440,-0.00263168,0.00244212,0.33787510,
3158,2.18918276,0.95612586,0.45230347,6.00000000,0.21914062,-0.32709962,-0.20281473,0.28243014,0.24853709,0.07000000,1.63709402,0.72341049,0.09885857,-0.12654096,-0.01229746,3.98982286,-6.46120930,0.28274572,-0.00020836,0.00244212,0.39656261,
3166,-2.13235140,-2.20661449,8.33640957,6.00000000,0.15791015,-0.22558594,-0.20587906,0.45576403,0.27798122,0.07000000,1.64476192,0.81836784,0.14899878,-0.17502192,-0.01229746,5.23598766,-8.03200531,0.45575488,0.00865249,0.00244212,0.51049620,
3174,4.02792978,2.71346998,10.28768444,6.00000000,0.22719726,-0.31259766,-0.09249927,-0.17601858,0.34846056,0.07000000,1.64476192,0.84234118,0.06721513,-0.09152342,-0.01229746,5.76656771,-8.64461517,-0.17595330,0.00294754,0.00244212,0.50613004,
3182,4.77492046,1.70072258,16.48627281,6.00000000,0.11118164,-0.17402343,-0.13913020,-0.76050407,0.46170709,0.07000000,1.65242982,0.81984603,-0.01713835,-0.00693699,-0.01229746,6.23780680,-9.03906059,-0.76039952,-0.00875739,0.00244212,0.49523011,
3190,3.94892097,0.11097267,20.61567116,6.00000000,-0.01611328,-0.03544922,-0.27689132,-1.39655018,0.65102863,0.07000000,1.65242982,0.55577129,-0.12223633,0.09213530,-0.01229746,6.28842115,-8.18733978,-1.39619577,-0.02116205,0.00244212,0.42060632,
3197,3.21868944,-0.11647650,20.61567116,5.00000000,-0.17241211,0.14340821,-0.35896179,-1.51246119,0.66768265,0.07000000,1.65242982,0.46588463,-0.16496098,0.13297775,-0.01229746,5.56585503,-7.15759516,-1.51191330,-0.03608512,0.00244212,0.34917226,
3206,-0.55457246,0.59220719,20.61567116,6.00000000,-0.23686524,0.23686524,-0.33564627,-1.37723148,0.62145138,0.07000000,1.65242982,0.49448547,-0.17310382,0.14220251,-0.01229746,3.86764979,-5.55712843,-1.37666345,-0.04234106,0.00244212,0.24018916,
3214,-1.07172000,3.01035094,16.22769928,6.00000000,-0.24975586,0.24331054,0.14158802,-0.82831877,0.47902712,0.07000000,1.65242982,0.56856191,-0.12870990,0.09948912,-0.01229746,1.96349537,-3.90604687,-0.82805741,-0.04936199,0.00244212,0.15168320,
3222,-3.56408405,1.59537768,10.11769581,6.00000000,-0.18852539,0.17724609,0.42390501,-0.24516560,0.35005930,0.07000000,1.64476192,0.73092341,-0.06682424,0.04173690,-0.01229746,0.17104226,-2.66860843,-0.24520934,-0.04836326,0.00244212,0.08459557,
3230,-3.11876249,-0.03028524,3.19366431,6.00000000,-0.10634766,0.06767578,0.64546853,0.36836430,0.42067182,0.07000000,1.64476192,0.56597817,0.00201219,-0.03259701,-0.01229746,-0.43807766,-1.49574709,0.36824074,-0.04712307,0.00244212,0.06458930,
3238,-3.16425228,-2.80277085,1.20887125,6.00000000,-0.01611328,-0.05317383,0.37620825,0.80816066,0.51153564,0.07000000,1.58725286,0.47454715,0.06725875,-0.09966648,-0.01229746,-0.38222709,-1.23918378,0.80821705,-0.03844703,0.00244212,0.08904448,
3246,-2.13474560,-2.43406367,0.22006591,6.00000000,0.08862305,-0.16918945,-0.05519454,1.10926318,0.50234258,0.07000000,1.58725286,0.50418437,0.13114969,-0.16366853,-0.01229746,0.51836282,-2.24100256,1.10949445,-0.02656304,0.00244212,0.17922658,
3254,0.29536912,-1.82354236,-1.05125523,6.00000000,0.19174805,-0.29326171,-0.29114705,0.91887581,0.59640396,0.07000000,1.40322340,0.65589809,0.13441390,-0.15758914,-0.01229746,1.36135685,-3.60235953,0.91930872,-0.01683245,0.00244212,0.24487638,
3262,1.65527570,0.39827687,0.08838481,6.00000000,0.19819336,-0.29003906,-0.37148553,0.59179312,0.66248655,0.07000000,1.40322340,0.86172187,0.11722008,-0.13448122,-0.01229746,2.39633703,-5.34070730,0.59213710,-0.01091209,0.00244212,0.32117510,
3269,-0.40852618,1.69353998,4.47216797,5.00000000,0.16435547,-0.25297850,0.07856964,0.44044241,0.64503324,0.07000000,1.40322340,0.88368607,0.11852298,-0.13530901,-0.01229746,3.65297413,-6.67239332,0.44057369,-0.00577639,0.00244212,0.40344870,
3278,2.86434746,-0.81318921,8.19993973,6.00000000,0.17402343,-0.24492188,-0.03481014,0.22141023,0.52472544,0.07000000,1.35338211,1.07276404,0.09829845,-0.10812311,-0.01229746,4.02822018,-7.69341135,0.22145033,-0.00878599,0.00244212,0.43792444,
3286,2.25382614,-0.20985036,16.36177444,6.00000000,0.14663085,-0.19980469,0.14958188,-0.43275520,0.66528440,0.07000000,1.35338211,0.95781070,0.01310830,-0.02510837,-0.01229746,4.84677935,-8.11927223,-0.43274337,-0.01363497,0.00244212,0.43561774,
3294,4.89941883,-0.98078328,18.89723396,6.00000000,0.03706055,-0.06123047,-0.10289131,-0.98113507,0.83342230,0.07000000,1.20385838,0.75960118,-0.07473294,0.06254037,-0.01229746,5.09461594,-7.68992090,-0.98094618,-0.02697508,0.00244212,0.38961190,
3302,0.10383300,-0.66953707,20.61567116,6.00000000,-0.09506836,0.10473633,-0.59598023,-1.15087163,0.84767807,0.07000000,1.20385838,0.63904309,-0.10802732,0.09293238,-0.01229746,4.65304804,-6.83645487,-1.15048230,-0.02849686,0.00244212,0.33077902,
3310,1.15728176,0.67600429,20.61567116,6.00000000,-0.15468749,0.17241211,-0.48060191,-1.15926516,0.86446512,0.07000000,1.04666662,0.49086505,-0.12943952,0.11499882,-0.01229746,3.77165651,-5.44891834,-1.15882111,-0.03502394,0.00244212,0.24850415,
3318,0.04876636,2.26814842,17.67140198,6.00000000,-0.18369141,0.21591797,-0.06558658,-0.93210584,0.69619405,0.07000000,1.04666662,0.70290595,-0.12110794,0.11269802,-0.01229746,1.97745812,-4.37903118,-0.93180072,-0.04199469,0.00244212,0.16173586,
3326,-1.46676338,1.72466457,11.60688877,6.00000000,-0.17724609,0.19174805,0.40685141,-0.46766174,0.47929364,0.07000000,0.99682540,0.79988873,-0.07925913,0.07457394,-0.01229746,0.51487213,-3.24805784,-0.46763831,-0.04735312,0.00244212,0.10180570,
3334,-2.69259453,0.79810858,6.55751801,6.00000000,-0.12084961,0.14179687,0.65852523,0.08085126,0.38376680,0.07000000,0.99682540,0.70029730,-0.02175681,0.01357979,-0.01229746,-0.25307274,-2.13977361,0.08075064,-0.04910119,0.00244212,0.07374230,
3341,-2.31431079,-2.17309570,1.80502748,5.00000000,-0.04672851,0.02255859,0.57125878,0.52784204,0.49021855,0.07000000,0.99682540,0.46790445,0.03352609,-0.04899360,-0.01229746,-0.08377581,-1.51494586,0.52780974,-0.04661228,0.00244212,0.08952935,
3350,-2.75005531,-2.99430704,0.96945101,6.00000000,0.04189453,-0.08862305,0.10761404,0.87637502,0.52592456,0.07000000,0.88947493,0.38212276,0.09424798,-0.10994712,-0.01229746,0.35255653,-1.65806282,0.87649262,-0.03603415,0.00244212,0.13549025,
3358,-0.74371439,-2.21140289,0.19851810,6.00000000,0.13374023,-0.18852539,-0.32032472,0.97709781,0.53591692,0.07000000,0.88947493,0.47201058,0.12869106,-0.14238547,-0.01229746,0.96865773,-2.58134174,0.97737586,-0.02588855,0.00244212,0.19816886,
3366,0.72632545,0.11815527,0.54807156,6.00000000,0.18691406,-0.26103514,-0.35869530,0.78537810,0.61505628,0.07000000,0.82429790,0.53790092,0.12651165,-0.13657606,-0.01229746,1.91986215,-3.75769401,0.78571159,-0.01794147,0.00244212,0.26096925,
3374,1.55471921,1.72705877,2.41315460,6.00000000,0.18530273,-0.24975586,0.03100608,0.37595850,0.67940688,0.07000000,0.82429790,0.63088924,0.09098686,-0.09806468,-0.01229746,2.95309711,-5.10857916,0.37620682,-0.01542082,0.00244212,0.31731385,
3382,2.85955906,-0.73418051,6.72750616,6.00000000,0.14501953,-0.18852539,-0.10302456,0.24405953,0.47316495,0.07000000,0.65943831,0.77289563,0.08365592,-0.08202550,-0.01229746,3.37546659,-6.01615000,0.24410714,-0.01833881,-0.00244200,0.35566327,
3390,0.15650544,-0.81079501,16.55091476,6.00000000,0.11601563,-0.16596679,0.20127562,-0.23663880,0.59267342,0.07000000,0.65943831,0.58387774,0.02404490,-0.02701101,-0.01229746,4.14515686,-6.14006805,-0.23665227,-0.01756088,-0.00244200,0.35323650,
3398,1.40388453,-0.87304425,19.61310005,6.00000000,0.04189453,-0.06445312,-0.03387755,-0.44794354,0.56775916,0.07000000,0.53675210,0.62729317,-0.00420847,0.00630814,-0.01229746,4.18879032,-6.33205414,-0.44784343,-0.02162263,-0.00244200,0.34650531,
3406,-0.52823627,0.15167409,20.61567116,6.00000000,0.00644531,0.00000000,-0.38827264,-0.88880575,0.64210224,0.07000000,0.53675210,0.51492387,-0.06637862,0.06616420,-0.01229746,4.01425743,-5.77354908,-0.88859105,-0.02008279,-0.00244200,0.28837958,
3413,1.69597709,1.19075763,20.43431091,5.00000000,-0.09184571,0.10795899,-0.32218993,-1.01644135,0.64103639,0.07000000,0.53675210,0.43215996,-0.10055990,0.09852715,-0.01229746,3.49763966,-4.97418833,-1.01609170,-0.02803762,-0.00244200,0.23182666,
3422,-1.07650840,1.11414313,17.87012100,6.00000000,-0.13535157,0.16918945,-0.16657585,-0.81885934,0.52392602,0.07000000,0.41406593,0.54300559,-0.08812415,0.09264521,-0.01229746,2.17118955,-4.02647448,-0.81858683,-0.03108897,-0.00244200,0.16417819,
3430,-1.70139503,1.63847339,12.67470360,6.00000000,-0.13374023,0.17241211,0.33757114,-0.44754383,0.34899342,0.07000000,0.41406593,0.54044718,-0.05567470,0.05979701,-0.01229746,1.10304809,-2.94960642,-0.44749352,-0.03431033,-0.00244200,0.11366089,
3438,-1.85941243,0.11336686,7.03635836,6.00000000,-0.08378907,0.10151367,0.46094331,-0.01454231,0.20990002,0.07000000,0.36422464,0.57885951,-0.00807274,0.01413429,-0.01229746,0.25307274,-2.23053074,-0.01462549,-0.03534470,-0.00244200,0.08835780,
3446,-2.74047852,-1.03106153,3.55997729,6.00000000,-0.01450195,0.03383789,0.38953137,0.44244090,0.16806543,0.07000000,0.36422464,0.49352932,0.05228881,-0.04942164,-0.01229746,0.13089970,-1.81688774,0.44238663,-0.03081551,-0.00244200,0.10198410,
3454,-1.58647335,-1.46680629,1.03170025,6.00000000,0.06928711,-0.08217774,0.21406581,0.79470426,0.26265961,0.07000000,0.28371185,0.39181834,0.10784146,-0.10634050,-0.01229746,0.54279739,-1.88146496,0.79479921,-0.02442480,-0.00244200,0.14450055,
3462,-0.27445087,-1.02148473,0.55285996,6.00000000,0.15468749,-0.19819336,0.01275340,0.82761240,0.36205012,0.07000000,0.28371185,0.27788407,0.12653854,-0.12858284,-0.01229746,1.45211387,-2.40157318,0.82786214,-0.01739241,-0.00244200,0.19834298,
3470,1.59302640,-1.22978032,0.96226841,6.00000000,0.19013672,-0.22397462,-0.14179483,0.50958943,0.52192760,0.07000000,0.13035409,0.25845197,0.10037279,-0.09836441,-0.01229746,2.34223175,-3.22536850,0.50987583,-0.01414925,-0.00244200,0.23715337,
3478,0.16368803,-1.55299747,5.65729809,6.00000000,0.14824219,-0.17885742,-0.38893884,0.38714990,0.44944984,0.07000000,0.13035409,0.32491022,0.10152178,-0.09774122,-0.01229746,3.15555525,-4.26558447,0.38725597,-0.00919988,-0.00244200,0.29503572,
3485,1.09742665,-0.03986204,9.89982319,5.00000000,0.14985351,-0.19174805,-0.18669376,-0.05850862,0.46690309,0.07000000,0.13035409,0.30800214,0.05106815,-0.04714954,-0.01229746,3.75594854,-4.80838203,-0.05846456,-0.00782821,-0.00244200,0.30410931,
3494,1.96891618,-0.17872573,13.49351978,6.00000000,0.08862305,-0.09990235,-0.08810264,-0.33496344,0.44212210,0.07000000,0.07667887,0.34123930,0.01618572,-0.00938331,-0.01229746,4.12421322,-5.29009295,-0.33492774,-0.01246211,-0.00244200,0.31480831,
3502,-0.23614365,0.34081602,18.41360474,6.00000000,0.02578125,-0.02739258,-0.16164631,-0.58783638,0.32274687,0.07000000,0.07667887,0.37952951,-0.01696897,0.02529438,-0.01229746,4.08756113,-5.38434076,-0.58770967,-0.01328380,-0.00244200,0.29867145,
3510,1.37275994,0.64727384,18.14306068,6.00000000,-0.02578125,0.03061523,-0.12793881,-0.71307373,0.30715883,0.07000000,0.02683761,0.37343237,-0.04557858,0.05557247,-0.01229746,3.68613529,-4.96197081,-0.71288717,-0.01996957,0.00244212,0.26000512,
3518,0.88673693,0.52516955,18.41360474,6.00000000,-0.05317383,0.09667969,-0.00536604,-0.78155458,0.30023083,0.07000000,0.02683761,0.31773782,-0.07116352,0.07999766,-0.01229746,3.04385400,-4.12944889,-0.78133130,-0.02659188,0.00244212,0.20197600,
3526,0.36001259,0.53953475,15.63154221,6.00000000,-0.10795899,0.14340821,0.04499536,-0.66044742,0.21669482,0.07000000,0.02683761,0.26051328,-0.07306109,0.08039086,-0.01229746,2.25322008,-3.14333820,-0.66029871,-0.03260377,0.00244212,0.14672163,
3534,-1.25128520,0.34560442,11.43929482,6.00000000,-0.10312500,0.14340821,0.11694023,-0.32203999,0.13475761,0.07000000,0.02683761,0.22015269,-0.04092430,0.04676664,-0.01229746,1.48178458,-2.23402143,-0.32209134,-0.03415856,0.00244212,0.11057822,
3542,-2.05813122,-0.09971709,7.48407364,6.00000000,-0.05639648,0.08217774,0.16490348,0.06273181,0.01818027,0.07000000,0.02683761,0.23859453,0.00340172,0.00244329,-0.01229746,0.70860362,-1.52367246,0.06272525,-0.03187854,0.00244212,0.08488716,
3550,-2.31670499,-0.70305592,4.36442900,6.00000000,0.00805664,0.00644531,0.22072738,0.53090638,0.01471626,0.07000000,0.02683761,0.19476208,0.06527223,-0.06146580,-0.01229746,0.49741885,-1.16238928,0.53082108,-0.02764491,0.00244212,0.09797507,
3557,-1.10763311,-0.91135144,1.91516066,5.00000000,0.09023438,-0.10151367,0.21406581,0.74141181,0.06654321,0.07000000,0.02683761,0.17158230,0.10156351,-0.09891458,-0.01229746,0.69464105,-1.28107166,0.74155438,-0.02095732,0.00244212,0.12451457,
3566,0.07749677,-1.19147301,1.48420441,6.00000000,0.14018555,-0.17885742,0.10534912,0.76912385,0.15354322,0.07000000,0.01916972,0.05572437,0.11975482,-0.12049401,-0.01229746,1.73485732,-1.92509818,0.76934248,-0.01526204,0.00244212,0.18716094,
3574,0.74787325,-2.28083491,3.55279469,6.00000000,0.17563477,-0.21752930,-0.09769531,0.50745773,0.23561366,0.07000000,0.01916972,0.02702251,0.09812023,-0.09945684,-0.01229746,2.52374625,-2.61624837,0.50777471,-0.01123042,0.00244212,0.22159120,
3582,2.26579714,-0.18351415,6.21275282,6.00000000,0.14501953,-0.18046875,-0.24158505,0.19036734,0.22642072,0.07000000,0.01916972,0.08381638,0.06636427,-0.06574510,-0.01229746,3.18522596,-3.47145987,0.19047114,-0.01120416,0.00244212,0.25334841,
3590,1.48768163,-0.46842414,11.48957348,6.00000000,0.11279297,-0.11279297,-0.13806435,-0.10380726,0.28091228,0.07000000,0.01916972,-0.00562422,0.02762913,-0.02907271,-0.01229746,3.85194159,-3.83274317,-0.10380736,-0.01590585,0.00244212,0.26916519,
3598,1.23629045,-0.42772272,15.14312553,6.00000000,0.04350586,-0.06123047,-0.24278411,-0.32124063,0.11916955,0.07000000,0.01916972,0.11852834,-0.00399427,0.00647056,-0.01229746,3.80656314,-4.21147966,-0.32122070,-0.02236876,0.00244212,0.26552260,
3606,1.67203510,0.05111762,17.28354073,6.00000000,-0.00161133,-0.00161133,-0.09103374,-0.49044430,0.07933341,0.07000000,0.01916972,0.10575017,-0.02924043,0.03171297,-0.01229746,3.61632204,-3.97760534,-0.49031442,-0.02269636,0.00244212,0.23807910,
3614,0.64492255,0.61136085,18.20291519,6.00000000,-0.03383789,0.06123047,0.01381925,-0.57358056,-0.00553489,0.07000000,0.01916972,0.12866201,-0.04956679,0.05300418,-0.01229746,3.12763000,-3.56745291,-0.57347637,-0.02682938,0.00244212,0.19973435,
3622,0.94419777,0.78613752,15.60281181,6.00000000,-0.07734375,0.08217774,0.07204130,-0.58543819,-0.05869415,0.07000000,0.01916972,0.12157680,-0.06865792,0.07223396,-0.01229746,2.30383468,-2.71922302,-0.58532608,-0.03387318,0.00244212,0.13868199,
3629,-1.27043879,0.44616091,13.14396667,5.00000000,-0.09667969,0.13212891,0.18075800,-0.31804308,-0.06628834,0.07000000,0.01916972,0.04586428,-0.04396533,0.04512916,-0.01229746,1.83783174,-1.99491143,-0.31784931,-0.03598022,0.00244212,0.11509510,
3638,-1.73012555,-0.30561844,9.16959190,6.00000000,-0.05961914,0.07734375,0.11307652,-0.03559285,-0.13303719,0.07000000,0.01916972,0.06388066,-0.02000269,0.02142942,-0.01229746,1.08035886,-1.29852498,-0.03569227,-0.04036651,0.00244212,0.08307570,
3646,-1.53858936,-0.42054012,5.76264286,6.00000000,-0.02900391,0.03222656,0.16743487,0.31187424,-0.12744148,0.07000000,0.01916972,-0.04133461,0.02700794,-0.02913963,-0.01229746,0.77318084,-0.63180918,0.31188309,-0.03214956,0.00244212,0.07303441,
3654,-1.84504724,-1.07415712,3.71081209,6.00000000,0.03706055,-0.05639648,0.06751144,0.68745315,-0.11531744,0.07000000,0.01916972,-0.08226734,0.07712771,-0.08102684,-0.01229746,0.75747293,-0.47647488,0.68745077,-0.02373754,0.04151416,0.09392041,
3662,-0.71977240,-0.43251112,2.71482396,6.00000000,0.10312500,-0.14824219,0.03007346,0.82881147,-0.09040319,0.07000000,0.01916972,-0.20381513,0.10518084,-0.11292717,-0.01229746,1.29154360,-0.59515727,0.82893181,-0.01682756,0.04151416,0.12760562,
3670,0.33607057,-0.59771103,3.19127011,6.00000000,0.15629883,-0.19980469,0.00236136,0.77671808,-0.03511222,0.07000000,0.01916972,-0.20596644,0.10099071,-0.10870688,-0.01229746,2.00189257,-1.29852498,0.77673608,-0.01002887,0.11965823,0.17474724,
3678,1.06151366,-0.51870239,6.52639341,6.00000000,0.14985351,-0.18530273,-0.12753910,0.41312999,-0.07148436,0.07000000,0.01916972,-0.09143799,0.07148822,-0.07564721,-0.01229746,2.56214333,-2.24972939,0.41325852,-0.00290068,0.11965823,0.20298977,
3686,1.42543232,-0.36547348,10.26134777,6.00000000,0.10634766,-0.14663085,-0.01975504,0.16918357,0.00738854,0.07000000,0.01916972,-0.18597320,0.03797239,-0.04436895,-0.01229746,3.37372160,-2.73842144,0.16916890,-0.00424774,0.15873027,0.23222785,
3694,0.40789661,-1.43328738,14.92285824,6.00000000,0.05800781,-0.07573242,-0.22439823,-0.08182409,-0.05229906,0.07000000,0.01916972,-0.08173352,0.00903884,-0.01211863,-0.01229746,3.38070273,-3.10144997,-0.08179854,-0.00395200,0.15873027,0.22746669,
3701,2.20115376,0.43897828,16.60837746,5.00000000,0.02094727,-0.03061523,-0.20747784,-0.28140450,-0.07907853,0.07000000,0.01916972,-0.14763288,-0.01710942,0.01252200,-0.01229746,3.40688276,-2.90248251,-0.28133917,-0.00206370,0.15873027,0.20688260,
3710,0.99447602,0.91063601,17.49423027,6.00000000,-0.02094727,0.02094727,-0.09143342,-0.45620388,-0.10132816,0.07000000,0.01916972,-0.12668006,-0.04717484,0.04361783,-0.01229746,3.00894761,-2.57610607,-0.45613077,-0.00499613,0.15873027,0.16821960,
3718,1.10700345,1.07823014,15.13354874,6.00000000,-0.05156250,0.06928711,-0.01216085,-0.48058516,-0.19925314,0.07000000,0.01916972,-0.06177413,-0.06495811,0.06354479,-0.01229746,2.20609617,-1.99491143,-0.48044199,-0.01184790,0.15873027,0.11663771,
3726,-1.72294295,0.78134912,13.72096920,6.00000000,-0.09667969,0.11762695,0.12946397,-0.26528352,-0.24215358,0.07000000,0.01916972,-0.07919843,-0.04673544,0.04464992,-0.01229746,1.62664676,-1.35612082,-0.26534548,-0.01381616,0.16117215,0.08827358,
3734,-1.56731975,-0.53785598,9.05706406,6.00000000,-0.07412110,0.09023438,0.23418373,0.06020042,-0.25534347,0.07000000,0.01916972,-0.12165628,-0.00507381,0.00129067,-0.01229746,1.07512283,-0.65973443,0.06013268,-0.00721207,0.16117215,0.06679250,
3742,-1.87138343,-0.77967036,5.92305422,6.00000000,-0.00966797,0.00966797,0.14998157,0.32293245,-0.26280442,0.07000000,0.01916972,-0.13130996,0.03635204,-0.04093770,-0.01229746,0.82554072,-0.37699112,0.32304880,0.00245330,0.16117215,0.06654830,
3750,-1.02383602,-1.09570503,3.09550214,6.00000000,0.05317383,-0.06928711,0.05352216,0.55035818,-0.23908925,0.07000000,0.01916972,-0.16192025,0.06790936,-0.07379654,-0.01229746,1.02450824,-0.47123891,0.55041325,0.00283935,0.16117215,0.09347311,
3758,-0.50908262,-0.80121821,2.58553720,6.00000000,0.10151367,-0.13374023,0.07284069,0.59618974,-0.12464362,0.07000000,0.01916972,-0.21709919,0.10065679,-0.10871859,-0.01229746,1.47131264,-0.72954762,0.59635472,0.00879020,0.05860806,0.12217063,
3766,-0.09009735,-1.61285257,4.15852785,6.00000000,0.13857421,-0.20141602,-0.05226344,0.59086043,-0.04710304,0.07000000,0.01916972,-0.29512912,0.11351199,-0.12403369,-0.01229746,2.41204500,-1.40324473,0.59102887,0.01354229,0.05860806,0.17989844,
3773,1.99046397,-1.67989016,5.63335609,5.00000000,0.17080078,-0.22075196,-0.25424203,0.32346535,-0.02845066,0.07000000,0.01916972,-0.24925198,0.07924464,-0.08806814,-0.01229746,2.93215322,-2.08043242,0.32371008,0.00695254,0.05860806,0.20374990,
3782,1.80132198,0.00562779,10.00995636,6.00000000,0.11279297,-0.16274413,-0.25650695,-0.02187003,-0.04963443,0.07000000,0.01916972,-0.18793836,0.04205742,-0.04879406,-0.01229746,3.64250207,-3.00022078,-0.02176911,-0.00299398,0.00976801,0.23756075,
3790,2.23227835,-0.01352582,14.38416290,6.00000000,0.06928711,-0.08701172,-0.07131551,-0.27993894,-0.03111529,0.07000000,0.01916972,-0.19107389,-0.00449127,-0.00173130,-0.01229746,3.87812161,-3.22536850,-0.27991354,-0.01750987,0.00976801,0.23556204,
3798,1.45416272,0.25223055,16.78554726,6.00000000,0.00805664,-0.01933594,-0.14885610,-0.51362658,-0.16514593,0.07000000,0.01916972,-0.02554537,-0.04374911,0.04274802,-0.01229746,3.47320533,-3.38593864,-0.51347601,-0.02648108,0.00976801,0.20995995,
3806,1.08545566,0.81726217,17.80547714,6.00000000,-0.06928711,0.07412110,0.00569215,-0.64779037,-0.17167424,0.07000000,0.01916972,-0.09300323,-0.07469538,0.07225662,-0.01229746,3.01592898,-2.69827914,-0.64760882,-0.03172633,0.00976801,0.15907001,
3814,0.01045913,0.30490300,16.10798836,6.00000000,-0.09829102,0.12084961,0.05645324,-0.52148718,-0.22443382,0.07000000,0.01916972,-0.09601083,-0.07170536,0.06921634,-0.01229746,2.24100256,-1.91288078,-0.52149189,-0.03608527,0.00732613,0.11199857,
3822,-1.79237473,-0.14520691,13.77603626,6.00000000,-0.10151367,0.11923828,0.08496474,-0.27167860,-0.25840777,0.07000000,0.01916972,-0.15636107,-0.04531596,0.04086438,-0.01229746,1.34041297,-0.80634212,-0.27182007,-0.02999224,0.00732613,0.05771783,
3830,-1.46436906,-0.07816927,8.31486225,6.00000000,-0.06928711,0.06767578,0.13452676,0.15319583,-0.28052416,0.07000000,0.01533577,-0.20686397,0.00929261,-0.01573297,-0.01229746,0.79587013,-0.08901179,0.15318647,-0.02335806,0.00732613,0.04288927,
3838,-1.79955733,-0.46602994,4.79538536,6.00000000,0.00322266,-0.02255859,0.11494176,0.38741636,-0.31063443,0.07000000,0.01533577,-0.10878229,0.04012356,-0.04418574,-0.01229746,0.47822019,-0.10646509,0.38746774,-0.02289776,0.00732613,0.04894643,
3845,-0.84905928,-0.48518357,2.28386784,5.00000000,0.05478515,-0.08056641,0.18115769,0.54622799,-0.24468496,0.07000000,0.01533577,-0.19673914,0.06875323,-0.07570578,-0.01229746,0.81157809,-0.13962634,0.54622686,-0.01642283,0.00732613,0.07357426,
3854,-1.19621849,-1.36146140,2.87762976,6.00000000,0.09829102,-0.13535157,0.08110103,0.65680999,-0.18659616,0.07000000,0.01533577,-0.23754649,0.09413629,-0.10263777,-0.01229746,1.43466055,-0.62308258,0.65695339,-0.01185942,0.00732613,0.12137523,
3862,-0.11403936,-1.66313076,4.28781462,6.00000000,0.14340821,-0.17885742,-0.04480250,0.58779615,-0.09932969,0.07000000,0.01533577,-0.20126705,0.09939170,-0.10700311,-0.01229746,2.02807260,-1.34041297,0.58799285,-0.00622363,0.00732613,0.16360319,
3870,0.90110219,-0.94247609,7.52716970,6.00000000,0.14340821,-0.19174805,-0.15525118,0.31040871,-0.05363137,0.07000000,0.01533577,-0.21712011,0.07172707,-0.07949682,-0.01229746,2.85884929,-2.11708450,0.31068492,-0.00682616,0.00732613,0.20150371,
3878,1.93300307,-1.19626141,10.89581108,6.00000000,0.11601563,-0.14824219,-0.19615319,-0.03426054,-0.00793305,0.07000000,0.01533577,-0.22730105,0.02184665,-0.02928094,-0.01229746,3.33183336,-2.55516195,-0.03426194,-0.01617724,0.00732613,0.20947103,
