TimeStamp,acc_x,acc_y,acc_z,cal_time,current_LW,current_RW,gyr_x,gyr_y,gyr_z,h_d,psi_dot_d,psi_dot_hat,tau_LW,tau_RW,theta_d,theta_dot_LW,theta_dot_RW,theta_dot_hat,theta_hat,v_d,v_hat,
12,0.59464437,0.01759880,9.84715080,4.00000000,-0.02739258,0.04028320,0.00062935,0.05353886,0.00499038,0.19999999,0.00000000,0.00000012,0.00000000,0.00000000,-0.04231516,0.00000000,0.00000000,0.05353579,-0.06036717,0.00000000,0.00385441,
21,0.61619216,0.01281040,9.79208469,5.00000000,-0.02739258,0.04028320,0.00169521,0.05313917,0.00605623,0.19999999,0.00000000,0.00000845,0.00000000,0.00000000,-0.04231516,0.00000000,0.00000000,0.05314183,-0.06013718,0.00000000,0.00382764,
29,0.63534576,0.00802199,9.83757401,4.00000000,-0.02739258,0.04028320,0.00076259,0.05380532,0.00885409,0.19999999,0.00000000,-0.00000752,0.00000000,0.00000000,-0.04231516,0.00000000,0.00000000,0.05380052,-0.05980428,0.00000000,0.00387415,
36,0.67604721,-0.10211129,9.88545799,4.00000000,-0.02739258,0.04028320,0.00169521,0.05367209,0.00991994,0.19999999,0.00000000,0.00000393,0.00000000,0.00000000,-0.04231516,0.00000000,0.00000000,0.05366743,-0.05945047,0.00000000,0.00386396,
44,0.61619216,-0.09014028,9.79447842,4.00000000,-0.02739258,0.04028320,-0.00056973,0.05473794,0.00778823,0.19999999,0.00000000,0.00000081,0.00000000,0.00000000,-0.04231516,0.00000000,0.00000000,0.05473626,-0.05904585,0.00000000,0.00394138,
52,0.54676032,-0.20985036,9.83996868,4.00000000,-0.02739258,0.04028320,0.00236136,0.05433824,0.00658915,0.19999999,0.00000000,-0.00000574,0.00000000,0.00000000,-0.04231516,0.00000000,0.00000000,0.05434445,-0.05854379,0.00000000,0.00391320,
60,0.65928781,-0.14999533,9.89982319,4.00000000,-0.02739258,0.04028320,-0.00096942,0.05034131,0.00752177,0.19999999,0.00000000,-0.00000783,0.00000000,0.00000000,-0.04231516,0.00000000,0.00000000,0.05034988,-0.05826055,0.00000000,0.00362500,
68,0.63295156,-0.14041851,9.76814270,4.00000000,-0.02739258,0.04028320,0.00356045,0.05500440,0.00552330,0.19999999,0.00000000,0.00000072,0.00000000,0.00000000,-0.04231516,0.00000000,0.00000000,0.05500949,-0.05778658,0.00000000,0.00396114,
76,0.54915452,-0.18830255,9.92376518,4.00000000,-0.02739258,0.04028320,0.00062935,0.05287270,0.00392453,0.19999999,0.00000000,-0.00001050,0.00000000,0.00000000,-0.04231516,0.00000000,0.00000000,0.05286618,-0.05736807,0.00000000,0.00380633,
84,0.54676032,-0.21703297,9.91418839,4.00000000,-0.02739258,0.04028320,-0.00203526,0.05127392,0.00205929,0.19999999,0.00000000,-0.00000010,0.00000000,0.00000000,-0.04231516,0.00000000,0.00000000,0.05126221,-0.05694112,0.00000000,0.00369039,
93,0.54915452,-0.16675474,9.82799721,5.00000000,-0.02739258,0.04028320,-0.00376728,0.05367209,0.00139313,0.19999999,0.00000000,-0.00000737,0.00000000,0.00000000,-0.04231516,0.00000000,0.00000000,0.05368801,-0.05651259,0.00000000,0.00386425,
101,0.51084727,-0.18830255,9.88545799,5.00000000,-0.02739258,0.04028320,-0.00363405,0.05207331,0.00179283,0.19999999,0.00000000,-0.00000331,0.00000000,0.00000000,-0.04231516,0.00000000,0.00000000,0.05207359,-0.05607747,0.00000000,0.00374924,
109,0.54676032,-0.11408229,9.83518028,5.00000000,-0.02739258,0.04028320,-0.00390051,0.05420502,0.00472392,0.19999999,0.00000000,0.00000141,0.00000000,0.00000000,-0.04231516,0.00000000,0.00000000,0.05418240,-0.05565693,0.00000000,0.00390185,
117,0.57549071,-0.18590835,9.85193920,5.00000000,-0.02739258,0.04028320,-0.00616543,0.05287270,0.00712208,0.19999999,0.00000000,0.00000347,0.00000000,0.00000000,-0.04231516,0.00000000,0.00000000,0.05286157,-0.05526310,0.00000000,0.00380553,
125,0.63773996,-0.20506196,9.88545799,5.00000000,-0.02739258,0.04028320,-0.00589897,0.05353886,0.00725531,0.19999999,0.00000000,-0.00000361,0.00000000,0.00000000,-0.04231516,0.00000000,0.00000000,0.05353454,-0.05502826,0.00000000,0.00385438,
133,0.61140376,-0.19787936,9.86391068,5.00000000,-0.02739258,0.04028320,-0.00296789,0.05047454,0.00459068,0.19999999,0.00000000,0.00001290,0.00000000,0.00000000,-0.04231516,0.00000000,0.00000000,0.05047820,-0.05456696,0.00000000,0.00363459,
141,0.61858636,-0.23858078,9.95010185,5.00000000,-0.02739258,0.04028320,-0.00190204,0.05207331,0.00139313,0.19999999,0.00000000,-0.00000211,0.00000000,0.00000000,-0.04231516,0.00000000,0.00000000,0.05206950,-0.05422600,0.00000000,0.00374866,
148,0.65210521,-0.27688801,9.89742947,4.00000000,-0.02739258,0.04028320,-0.00256820,0.05300593,-0.00220411,0.19999999,0.00000000,-0.00000110,0.00000000,0.00000000,-0.04231516,0.00000000,0.00000000,0.05299118,-0.05467046,0.00000000,0.00381529,
157,0.64252836,-0.31280103,9.84236240,5.00000000,-0.02739258,0.04028320,-0.00243497,0.05553732,-0.01073091,0.19999999,0.00000000,-0.00000375,0.00000000,0.00000000,-0.04231516,0.00000000,0.00000000,0.05556062,-0.05423243,0.00000000,0.00400042,
165,0.68562400,-0.21224457,9.82560349,5.00000000,-0.02739258,0.04028320,0.00022966,0.06273181,-0.01219645,0.19999999,0.00000000,0.00001593,0.00000000,0.00000000,-0.04231516,0.00000000,0.00000000,0.06271164,-0.05393464,0.00000000,0.00451670,
173,0.65689361,-0.23139818,9.91179466,5.00000000,-0.02739258,0.04028320,-0.00123588,0.06632905,-0.01792540,0.19999999,0.00000000,0.00000911,0.00000000,0.00000000,-0.04231516,0.00000000,0.00000000,0.06632304,-0.05414472,0.00000000,0.00477491,
181,0.71914285,-0.18830255,9.76574802,5.00000000,-0.02739258,0.04028320,-0.00403374,0.06899368,-0.01659308,0.19999999,0.00000000,-0.00000389,0.00000000,0.00000000,-0.04231516,0.00000000,0.00000000,0.06898214,-0.05450913,0.00000000,0.00496623,
189,0.67604721,-0.09971709,9.81842041,5.00000000,-0.02739258,0.04028320,-0.00496636,0.07245769,-0.01805863,0.19999999,0.00000000,-0.00000269,0.00000000,0.00000000,-0.04231516,0.00000000,0.00000000,0.07246162,-0.05423750,0.00000000,0.00521691,
197,0.70238340,-0.06859246,9.86391068,4.00000000,-0.02739258,0.04028320,-0.00709806,0.07299062,-0.01712601,0.19999999,0.00000000,-0.00002021,0.00000000,0.00000000,-0.04231516,0.00000000,0.00000000,0.07299579,-0.05431166,0.00000000,0.00525569,
205,0.65689361,-0.13323590,9.77293110,5.00000000,-0.02739258,0.04028320,-0.00536604,0.08178388,-0.01432815,0.19999999,0.00000000,0.00000593,0.00000000,0.00000000,-0.04231516,0.00000000,0.00000000,0.08180038,-0.05443065,0.00000000,0.00588913,
213,0.60182697,0.06548283,9.86151600,4.00000000,-0.02739258,0.04028320,0.00009643,0.08178388,-0.01232968,0.19999999,0.00000000,-0.00000091,0.00000000,0.00000000,-0.04231516,0.00000000,0.00000000,0.08178240,-0.05395000,0.00000000,0.00588840,
220,0.63055736,0.06308863,9.81123829,4.00000000,-0.02739258,0.04028320,-0.00270143,0.08711313,-0.01299584,0.19999999,0.00000000,0.00000852,0.00000000,0.00000000,-0.04231516,0.00000000,0.00000000,0.08710219,-0.05319633,0.00000000,0.00627209,
229,0.62576896,0.05590603,9.85193920,4.00000000,-0.02739258,0.04028320,-0.00523283,0.08817898,-0.00660074,0.19999999,0.00000000,0.00000300,0.00000000,0.00000000,-0.04231516,0.00000000,0.00000000,0.08817942,-0.05331062,0.00000000,0.00634884,
237,0.60900956,0.03675241,9.84236240,5.00000000,-0.02739258,0.04028320,-0.00310113,0.09404115,-0.00660074,0.19999999,0.00000000,-0.00000259,0.00000000,0.00000000,-0.04231516,0.00000000,0.00000000,0.09404239,-0.05288404,0.00000000,0.00677132,
245,0.61858636,0.01520460,9.86630440,5.00000000,-0.02739258,0.04028320,-0.00456667,0.09710547,-0.00193765,0.19999999,0.00000000,0.00000454,0.00000000,0.00000000,-0.04231516,0.00000000,0.00000000,0.09709477,-0.05240890,0.00000000,0.00699088,
253,0.61140376,-0.00394902,9.81123829,5.00000000,-0.02739258,0.04028320,0.00129551,0.10310088,0.00352484,0.19999999,0.00000000,0.00000479,0.00000000,0.00000000,-0.04231516,0.00000000,0.00000000,0.10309467,-0.05184347,0.00000000,0.00742285,
260,0.54676032,0.02478140,9.84954548,4.00000000,-0.02739258,0.04028320,-0.00203526,0.10496612,0.00445745,0.19999999,0.00000000,0.00000455,0.00000000,0.00000000,-0.04231516,0.00000000,0.00000000,0.10496421,-0.05112215,0.00000000,0.00755838,
268,0.62816316,-0.00394902,9.91658306,4.00000000,-0.02739258,0.04028320,-0.00456667,0.10549904,0.00632269,0.19999999,0.00000000,-0.00000401,0.00000000,0.00000000,-0.04231516,0.00000000,0.00000000,0.10551406,-0.05049294,0.00000000,0.00759798,
276,0.62576896,-0.10689969,9.84236240,4.00000000,-0.02739258,0.04028320,-0.00310113,0.11469200,0.00792147,0.19999999,0.00000000,-0.00000531,0.00000000,0.00000000,-0.04231516,0.00000000,0.00000000,0.11468845,-0.05035275,0.00000000,0.00825770,
284,0.55873132,-0.13323590,9.83757401,4.00000000,-0.02739258,0.04028320,-0.00310113,0.11415908,0.00778823,0.19999999,0.00000000,-0.00001058,0.00000000,0.00000000,-0.04231516,0.00000000,0.00000000,0.11416230,-0.04989219,0.00000000,0.00821942,
292,0.59225017,-0.06859246,9.79926682,4.00000000,-0.02739258,0.04028320,-0.00123588,0.12148678,0.00738854,0.19999999,0.00000000,0.00102153,0.00000000,0.00000000,-0.04231516,-0.00349066,0.00000000,0.12147391,-0.04949945,0.00000000,0.00862130,
300,0.53957772,-0.05422725,9.82320881,4.00000000,-0.02739258,0.04028320,-0.00096942,0.12495081,0.00285868,0.19999999,0.00000000,0.00306797,0.00000000,0.00000000,-0.04231516,-0.01047198,0.00000000,0.12495075,-0.04856164,0.00000000,0.00861893,
309,0.58506751,-0.15478373,9.91897678,4.00000000,-0.02739258,0.04028320,-0.00230172,0.13081297,0.00459068,0.19999999,0.00000000,-0.00000985,0.00000000,0.00000000,-0.04231516,0.00000000,0.00000000,0.13081464,-0.04747906,0.00000000,0.00941846,
317,0.49648207,-0.13323590,9.83039188,4.00000000,-0.02739258,0.04028320,-0.00216851,0.13054651,0.00139313,0.19999999,0.00000000,-0.00000242,0.00000000,0.00000000,-0.04231516,0.00000000,0.00000000,0.13054536,-0.04657682,0.00000000,0.00939973,
324,0.44859803,-0.18590835,9.79687309,4.00000000,-0.02739258,0.04028320,-0.00070295,0.12894773,0.00339160,0.19999999,0.00000000,0.00000418,0.00000000,0.00000000,-0.04231516,0.00000000,0.00000000,0.12894937,-0.04553890,0.00000000,0.00928381,
332,0.40310821,-0.05662145,9.82560349,4.00000000,-0.02739258,0.04028320,-0.00123588,0.13201207,0.00445745,0.19999999,0.00000000,-0.00000264,0.00000000,0.00000000,-0.04231516,0.00000000,0.00000000,0.13200854,-0.04443984,0.00000000,0.00950526,
340,0.40550241,-0.07577506,9.80405521,4.00000000,-0.02739258,0.04028320,-0.00190204,0.13201207,0.00019405,0.19999999,0.00000000,-0.00000219,0.00000000,0.00000000,-0.04231516,0.00000000,0.00000000,0.13203000,-0.04336180,0.00000000,0.00950543,
348,0.30494595,-0.05901565,9.88785267,4.00000000,-0.02739258,0.04028320,-0.00336757,0.13267821,-0.00060533,0.19999999,0.00000000,0.00000172,0.00000000,0.00000000,-0.04231516,0.00000000,0.00000000,0.13266861,-0.04248266,0.00000000,0.00955204,
356,0.35282996,-0.04943885,9.89264107,4.00000000,-0.02739258,0.04028320,0.00169521,0.13001359,0.00125990,0.19999999,0.00000000,0.00000656,0.00000000,0.00000000,-0.04231516,0.00000000,0.00000000,0.13000673,-0.04125509,0.00000000,0.00936035,
364,0.28339812,-0.04943885,9.82799721,4.00000000,-0.02739258,0.04028320,0.00396014,0.12721573,-0.00047210,0.19999999,0.00000000,0.00000336,0.00000000,0.00000000,-0.04231516,0.00000000,0.00000000,0.12721002,-0.03960244,0.00000000,0.00915941,
372,0.24030249,-0.03507364,9.81842041,4.00000000,-0.02739258,0.04028320,-0.00030326,0.12948066,-0.00033887,0.19999999,0.00000000,0.00000142,0.00000000,0.00000000,-0.04231516,0.00000000,0.00000000,0.12947831,-0.03826396,0.00000000,0.00932273,
380,0.18523586,-0.01592002,9.84954548,4.00000000,-0.02739258,0.04028320,0.00396014,0.12455110,-0.00033887,0.19999999,0.00000000,0.00000274,0.00000000,0.00000000,-0.04231516,0.00000000,0.00000000,0.12455145,-0.03715096,0.00000000,0.00896752,
389,0.13016921,-0.03746784,9.95967865,5.00000000,-0.02739258,0.04028320,0.00249460,0.11522493,0.00645592,0.19999999,0.00000000,0.00000942,0.00000000,0.00000000,-0.04231516,0.00000000,0.00000000,0.11522727,-0.03624485,0.00000000,0.00829649,
397,0.23311989,-0.04225624,9.89503479,5.00000000,-0.02739258,0.04028320,0.00022966,0.11002891,0.00752177,0.19999999,0.00000000,-0.00000134,0.00000000,0.00000000,-0.04231516,0.00000000,0.00000000,0.11002608,-0.03466534,0.00000000,0.00792213,
405,0.15411124,-0.04225624,9.81842041,5.00000000,-0.02739258,0.04028320,-0.00003681,0.11029537,0.00738854,0.19999999,0.00000000,0.00000081,0.00000000,0.00000000,-0.04231516,0.00000000,0.00000000,0.11030869,-0.03342527,0.00000000,0.00794176,
413,0.24030249,-0.03028524,9.81842041,5.00000000,-0.02739258,0.04028320,-0.00056973,0.10882983,0.00592300,0.19999999,0.00000000,-0.00001029,0.00000000,0.00000000,-0.04231516,0.00000000,0.00000000,0.10884217,-0.03246075,0.00000000,0.00783657,
421,0.20917787,0.02717561,9.81842041,5.00000000,-0.02739258,0.04028320,0.00262783,0.10563228,0.00339160,0.19999999,0.00000000,0.00000228,0.00000000,0.00000000,-0.04231516,0.00000000,0.00000000,0.10564116,-0.03135415,0.00000000,0.00760557,
429,0.21636048,-0.09253448,9.91658306,5.00000000,-0.02739258,0.04028320,0.00382690,0.10936275,-0.00033887,0.19999999,0.00000000,0.00000038,0.00000000,0.00000000,-0.04231516,0.00000000,0.00000000,0.10934953,-0.02991002,0.00000000,0.00787340,
436,0.30973434,-0.07577506,9.90700626,4.00000000,-0.02739258,0.04028320,0.00729092,0.10296765,-0.00366965,0.19999999,0.00000000,-0.00000297,0.00000000,0.00000000,-0.04231516,0.00000000,0.00000000,0.10296223,-0.02916085,0.00000000,0.00741405,
445,0.23790829,-0.06619826,9.94531345,5.00000000,-0.02739258,0.04028320,0.00515921,0.10070272,-0.00167118,0.19999999,0.00000000,-0.00000595,0.00000000,0.00000000,-0.04231516,0.00000000,0.00000000,0.10068566,-0.02809555,0.00000000,0.00724970,
453,0.25227350,-0.06619826,9.78729630,5.00000000,-0.02739258,0.04028320,0.00489276,0.09990333,0.00019405,0.19999999,0.00000000,0.00000590,0.00000000,0.00000000,-0.04231516,0.00000000,0.00000000,0.09991463,-0.02732156,0.00000000,0.00719419,
461,0.28818652,-0.11647650,9.77771950,5.00000000,-0.02739258,0.04028320,0.00089581,0.09843779,0.00099344,0.19999999,0.00000000,0.00000300,0.00000000,0.00000000,-0.04231516,0.00000000,0.00000000,0.09842699,-0.02661070,0.00000000,0.00708742,
469,0.23072569,-0.01352582,9.79208469,5.00000000,-0.02739258,0.04028320,0.00209490,0.09817132,0.00432422,0.19999999,0.00000000,-0.00256310,0.00000000,0.00000000,-0.04231516,0.00000000,0.00872665,0.09817793,-0.02569045,0.00000000,0.00675415,
477,0.20199527,-0.04465045,9.84475708,5.00000000,-0.02739258,0.04028320,-0.00296789,0.09723870,0.00832116,0.19999999,0.00000000,-0.00000268,0.00000000,0.00000000,-0.04231516,0.00000000,0.00000000,0.09723935,-0.02485823,0.00000000,0.00700180,
485,0.12059241,-0.10450549,9.84954548,5.00000000,-0.02739258,0.04028320,-0.00003681,0.09977010,0.00952024,0.19999999,0.00000000,-0.00000148,0.00000000,0.00000000,-0.04231516,0.00000000,0.00000000,0.09975915,-0.02440169,0.00000000,0.00718311,
493,0.16847645,-0.04465045,9.75377750,5.00000000,-0.02739258,0.04028320,-0.00190204,0.09244238,0.00898732,0.19999999,0.00000000,0.00000459,0.00000000,0.00000000,-0.04231516,0.00000000,0.00000000,0.09245681,-0.02325084,0.00000000,0.00665625,
501,0.11580400,-0.06859246,9.73941231,5.00000000,-0.02739258,0.04028320,-0.00123588,0.08911160,0.01298425,0.19999999,0.00000000,-0.00000866,0.00000000,0.00000000,-0.04231516,0.00000000,0.00000000,0.08911490,-0.02228959,0.00000000,0.00641609,
508,0.11819821,-0.14520691,9.79926682,4.00000000,-0.02739258,0.04028320,0.00116228,0.08418204,0.00912055,0.19999999,0.00000000,-0.00000320,0.00000000,0.00000000,-0.04231516,0.00000000,0.00000000,0.08416756,-0.02114544,0.00000000,0.00606072,
517,0.02721854,-0.09014028,9.83757401,5.00000000,-0.02739258,0.04028320,0.00102905,0.07831986,0.00792147,0.19999999,0.00000000,0.00000201,0.00000000,0.00000000,-0.04231516,0.00000000,0.00000000,0.07831177,-0.01946485,0.00000000,0.00563904,
525,0.04158375,-0.06619826,9.88785267,5.00000000,-0.02739258,0.04028320,0.00582537,0.07605494,0.00752177,0.19999999,0.00000000,0.00000715,0.00000000,0.00000000,-0.04231516,0.00000000,0.00000000,0.07605571,-0.01897993,0.00000000,0.00547600,
533,0.01764173,-0.10211129,9.89503479,5.00000000,-0.02739258,0.04028320,0.00502599,0.06779461,0.00272545,0.19999999,0.00000000,-0.00000048,0.00000000,0.00000000,-0.04231516,0.00000000,0.00000000,0.06778754,-0.01818534,0.00000000,0.00488158,
541,0.04876636,-0.12365910,9.86869907,5.00000000,-0.02739258,0.04028320,-0.00390051,0.06619583,0.00459068,0.19999999,0.00000000,-0.00000175,0.00000000,0.00000000,-0.04231516,0.00000000,0.00000000,0.06619681,-0.01721513,0.00000000,0.00476650,
548,0.01524753,-0.15717793,9.83518028,4.00000000,-0.02739258,0.04028320,0.00036289,0.06326474,0.00379130,0.19999999,0.00000000,0.00000338,0.00000000,0.00000000,-0.04231516,0.00000000,0.00000000,0.06325338,-0.01637372,0.00000000,0.00455457,
556,0.00327652,-0.17633153,9.97883224,4.00000000,-0.02739258,0.04028320,-0.00390051,0.05980073,0.00685562,0.19999999,0.00000000,0.00000552,0.00000000,0.00000000,-0.04231516,0.00000000,0.00000000,0.05980074,-0.01523751,0.00000000,0.00430608,
564,0.06552577,-0.21942717,9.81602669,4.00000000,-0.02739258,0.04028320,0.00129551,0.05140716,0.00672239,0.19999999,0.00000000,-0.00000880,0.00000000,0.00000000,-0.04231516,0.00000000,0.00000000,0.05139906,-0.01469391,0.00000000,0.00370137,
572,0.02721854,-0.16436052,9.81123829,4.00000000,-0.02739258,0.04028320,-0.00163557,0.04767668,0.00539007,0.19999999,0.00000000,-0.00000361,0.00000000,0.00000000,-0.04231516,0.00000000,0.00000000,0.04769888,-0.01404842,0.00000000,0.00343355,
580,-0.03503070,-0.17154314,9.80166149,4.00000000,-0.02739258,0.04028320,-0.00163557,0.04154804,-0.00020564,0.19999999,0.00000000,-0.00000079,0.00000000,0.00000000,-0.04231516,0.00000000,0.00000000,0.04154266,-0.01380065,0.00000000,0.00299138,
588,0.03440114,-0.17393734,9.75856590,4.00000000,-0.02739258,0.04028320,0.00022966,0.03621879,-0.00460227,0.19999999,0.00000000,-0.00000988,0.00000000,0.00000000,-0.04231516,0.00000000,0.00000000,0.03623404,-0.01327002,0.00000000,0.00260808,
597,0.01045913,-0.14760111,9.80166149,4.00000000,-0.02739258,0.04028320,0.00142874,0.03595233,-0.00486873,0.19999999,0.00000000,-0.00000516,0.00000000,0.00000000,-0.04231516,0.00000000,0.00000000,0.03594107,-0.01218560,0.00000000,0.00258773,
605,0.01045913,-0.19548516,9.83757401,5.00000000,-0.02739258,0.04028320,-0.00030326,0.02995693,-0.00713366,0.19999999,0.00000000,-0.00001065,0.00000000,0.00000000,-0.04231516,0.00000000,0.00000000,0.02996904,-0.01170367,0.00000000,0.00215729,
612,0.00567073,-0.20027356,9.83518028,4.00000000,-0.02739258,0.04028320,-0.00256820,0.02516060,-0.00353642,0.19999999,0.00000000,-0.00000406,0.00000000,0.00000000,-0.04231516,0.00000000,0.00000000,0.02515574,-0.01080879,0.00000000,0.00181133,
620,-0.04700171,-0.14520691,9.88545799,4.00000000,-0.02739258,0.04028320,-0.00363405,0.01783288,-0.00073857,0.19999999,0.00000000,-0.00000496,0.00000000,0.00000000,-0.04231516,0.00000000,0.00000000,0.01783930,-0.00978975,0.00000000,0.00128443,
629,0.03200695,-0.16675474,9.89982319,5.00000000,-0.02739258,0.04028320,-0.00363405,0.01277010,-0.00180442,0.19999999,0.00000000,0.00000329,0.00000000,0.00000000,-0.04231516,0.00000000,0.00000000,0.01276761,-0.00954768,0.00000000,0.00091967,
636,0.02721854,-0.14041851,9.79926682,4.00000000,-0.02739258,0.04028320,-0.00390051,0.00477622,-0.00087180,0.19999999,0.00000000,0.00000904,0.00000000,0.00000000,-0.04231516,0.00000000,0.00000000,0.00477439,-0.00926966,0.00000000,0.00034411,
644,0.03679535,-0.13802432,9.75856590,4.00000000,-0.02739258,0.04028320,-0.00323436,0.00117898,-0.00473550,0.19999999,0.00000000,0.00000367,0.00000000,0.00000000,-0.04231516,0.00000000,0.00000000,0.00118668,-0.00907472,0.00000000,0.00008547,
652,0.04158375,-0.12844750,9.81842041,4.00000000,-0.02739258,0.04028320,-0.00323436,0.00171190,-0.00939860,0.19999999,0.00000000,0.00001916,0.00000000,0.00000000,-0.04231516,0.00000000,0.00000000,0.00169419,-0.00906265,0.00000000,0.00012198,
660,0.05355476,-0.12126490,9.92137146,4.00000000,-0.02739258,0.04028320,-0.00123588,-0.00081949,-0.01259615,0.19999999,0.00000000,-0.00000376,0.00000000,0.00000000,-0.04231516,0.00000000,0.00000000,-0.00082820,-0.00900161,0.00000000,-0.00005983,
668,0.08707358,-0.12365910,9.87109280,4.00000000,-0.02739258,0.04028320,0.00089581,-0.00961275,-0.01606016,0.19999999,0.00000000,-0.00001066,0.00000000,0.00000000,-0.04231516,0.00000000,0.00000000,-0.00961559,-0.00900378,0.00000000,-0.00069143,
676,0.13016921,-0.10450549,9.89024639,4.00000000,-0.02739258,0.04028320,0.00009643,-0.00801398,-0.01339553,0.19999999,0.00000000,-0.00001448,0.00000000,0.00000000,-0.04231516,0.00000000,0.00000000,-0.00801125,-0.00914047,0.00000000,-0.00057604,
684,0.07031417,-0.08774608,9.78011322,4.00000000,-0.02739258,0.04028320,-0.00176881,-0.00881337,-0.01392846,0.19999999,0.00000000,-0.00000152,0.00000000,0.00000000,-0.04231516,0.00000000,0.00000000,-0.00880229,-0.00914994,0.00000000,-0.00063300,
693,0.15171702,-0.09971709,9.83039188,5.00000000,-0.02739258,0.04028320,-0.00256820,-0.01107829,-0.01246291,0.19999999,0.00000000,0.00000230,0.00000000,0.00000000,-0.04231516,0.00000000,0.00000000,-0.01106291,-0.00942162,0.00000000,-0.00079720,
701,0.12777501,-0.11647650,9.75617123,5.00000000,-0.02739258,0.04028320,-0.00256820,-0.00761428,-0.00953183,0.19999999,0.00000000,-0.00000382,0.00000000,0.00000000,-0.04231516,0.00000000,0.00000000,-0.00761989,-0.00961432,0.00000000,-0.00054912,
709,0.16129383,-0.08535188,9.78011322,5.00000000,-0.02739258,0.04028320,-0.00749774,-0.00748105,-0.00953183,0.19999999,0.00000000,-0.00000264,0.00000000,0.00000000,-0.04231516,0.00000000,0.00000000,-0.00747543,-0.00982606,0.00000000,-0.00053905,
717,0.21396628,-0.05662145,9.79926682,5.00000000,-0.02739258,0.04028320,-0.00549929,-0.00588227,-0.00953183,0.19999999,0.00000000,-0.00000056,0.00000000,0.00000000,-0.04231516,0.00000000,0.00000000,-0.00589745,-0.00940857,0.00000000,-0.00042399,
724,0.21636048,-0.09014028,9.81842041,4.00000000,-0.02739258,0.04028320,-0.00403374,-0.00361735,-0.00766659,0.19999999,0.00000000,0.00000566,0.00000000,0.00000000,-0.04231516,0.00000000,0.00000000,-0.00361445,-0.00970224,0.00000000,-0.00026008,
733,0.21636048,0.01759880,9.95249557,5.00000000,-0.02739258,0.04028320,-0.00296789,-0.00388381,-0.00700043,0.19999999,0.00000000,-0.00000188,0.00000000,0.00000000,-0.04231516,0.00000000,0.00000000,-0.00389008,-0.00988872,0.00000000,-0.00027885,
741,0.19960107,-0.00873742,9.91658306,5.00000000,-0.02739258,0.04028320,-0.00190204,-0.00694813,-0.00753336,0.19999999,0.00000000,-0.00000550,0.00000000,0.00000000,-0.04231516,0.00000000,0.00000000,-0.00695429,-0.00997503,0.00000000,-0.00050145,
749,0.11819821,-0.07338087,9.90221786,5.00000000,-0.02739258,0.04028320,-0.00363405,-0.00761428,-0.00167118,0.19999999,0.00000000,-0.00000608,0.00000000,0.00000000,-0.04231516,0.00000000,0.00000000,-0.00763822,-0.01003730,0.00000000,-0.00054968,
757,0.15889964,0.00083939,9.78729630,5.00000000,-0.02739258,0.04028320,-0.00456667,-0.00228503,-0.00073857,0.19999999,0.00000000,0.00000161,0.00000000,0.00000000,-0.04231516,0.00000000,0.00000000,-0.00227861,-0.01014587,0.00000000,-0.00016431,
765,0.12777501,-0.06619826,9.75377750,5.00000000,-0.02739258,0.04028320,-0.00363405,-0.00175211,0.00086021,0.19999999,0.00000000,-0.00001111,0.00000000,0.00000000,-0.04231516,0.00000000,0.00000000,-0.00173746,-0.01017945,0.00000000,-0.00012436,
773,0.17565905,-0.00394902,9.81602669,5.00000000,-0.02739258,0.04028320,-0.00509958,-0.00041980,-0.00180442,0.19999999,0.00000000,0.00000314,0.00000000,0.00000000,-0.04231516,0.00000000,0.00000000,-0.00041923,-0.01037704,0.00000000,-0.00003004,
781,0.21636048,-0.08056347,9.85433388,5.00000000,-0.02739258,0.04028320,-0.00603220,0.00051282,-0.00100503,0.19999999,0.00000000,-0.00000672,0.00000000,0.00000000,-0.04231516,0.00000000,0.00000000,0.00050445,-0.01034953,0.00000000,0.00003751,
789,0.22833148,0.05111762,9.89024639,5.00000000,-0.02739258,0.04028320,-0.00283465,-0.00002010,-0.00553489,0.19999999,0.00000000,-0.00001363,0.00000000,0.00000000,-0.04231516,0.00000000,0.00000000,0.00000766,-0.01054912,0.00000000,-0.00000049,
796,0.18763006,-0.05901565,9.89503479,4.00000000,-0.02739258,0.04028320,-0.00176881,-0.00175211,-0.00593458,0.19999999,0.00000000,-0.00000271,0.00000000,0.00000000,-0.04231516,0.00000000,0.00000000,-0.00175963,-0.01067631,0.00000000,-0.00012647,
805,0.20199527,-0.03507364,9.82799721,5.00000000,-0.02739258,0.04028320,0.00089581,-0.00375058,-0.00979829,0.19999999,0.00000000,-0.00001618,0.00000000,0.00000000,-0.04231516,0.00000000,0.00000000,-0.00377287,-0.01138518,0.00000000,-0.00027045,
813,0.24509090,-0.05183305,9.75856590,5.00000000,-0.02739258,0.04028320,0.00022966,0.00077928,-0.01086414,0.19999999,0.00000000,-0.00000578,0.00000000,0.00000000,-0.04231516,0.00000000,0.00000000,0.00077036,-0.01156858,0.00000000,0.00005607,
822,0.19481266,0.00323359,9.88545799,6.00000000,0.00161133,0.00000000,-0.00310113,0.00104574,-0.00766659,0.19999999,0.01150183,-0.00000427,0.04645161,-0.04778623,-0.04231516,0.00000000,0.00000000,0.00104306,-0.01171193,0.00244212,0.00007580,
830,0.08707358,0.02478140,9.83039188,6.00000000,0.07250977,-0.08701172,0.00262783,0.00011313,-0.00433581,0.19999999,0.01150183,-0.00000675,0.04834602,-0.04975500,-0.04231516,0.16580628,-0.16580628,0.00010998,-0.01163701,0.00244212,0.01194555,
838,0.48451108,-0.12365910,9.49520302,6.00000000,0.07734375,-0.09345703,0.00262783,-0.05504461,0.00419099,0.19999999,0.01150183,0.00561552,0.03597574,-0.03696119,-0.04231516,0.20594886,-0.22514747,-0.05504683,-0.01269401,0.00244212,0.01155596,
846,0.47493425,0.02238720,9.98840904,6.00000000,0.06284180,-0.07573242,-0.01775657,-0.07316406,-0.00287026,0.19999999,0.01150183,0.00458872,0.03295855,-0.03393039,-0.04231516,0.32986721,-0.34557518,-0.07315523,-0.01315519,0.00244212,0.01904903,
854,-0.01827129,-0.07577506,10.32120323,6.00000000,0.05478515,-0.06928711,0.01088817,-0.10447340,0.01764735,0.19999999,0.01150183,0.00459289,0.02732072,-0.02817734,-0.04231516,0.38048175,-0.39618975,-0.10447292,-0.01299353,0.00244212,0.02043951,
862,0.17805324,-0.21942717,10.39781761,6.00000000,0.04995117,-0.05961914,-0.02055441,-0.13125288,0.01524918,0.19999999,0.01150183,-0.00559882,0.01944931,-0.02040925,-0.04231516,0.33510324,-0.31590459,-0.13125242,-0.01392854,0.00244212,0.01398565,
870,0.30015755,0.04393502,9.69392204,6.00000000,0.03544922,-0.06284180,-0.00283465,-0.11393282,0.00472392,0.19999999,0.01150183,0.01175265,0.02013886,-0.02061107,-0.04231516,0.24958208,-0.28972465,-0.11393103,-0.01555151,0.00244212,0.01121157,
878,0.09904459,-0.15238953,9.27733135,6.00000000,0.03544922,-0.04028320,0.02567683,-0.06810127,0.00565654,0.19999999,0.01150183,0.02453214,0.02843824,-0.02872738,-0.04231516,0.20594886,-0.28972465,-0.06809409,-0.01628325,0.00244212,0.01294045,
886,-0.02305970,-0.19548516,9.29887867,6.00000000,0.04350586,-0.05800781,-0.00390051,-0.04425288,0.00578977,0.19999999,0.01150183,-0.00152775,0.03262156,-0.03374289,-0.04231516,0.24609143,-0.24085544,-0.04429010,-0.01649489,0.00244212,0.01434232,
894,0.09665039,0.02238720,9.56224060,6.00000000,0.04833984,-0.06284180,-0.02521750,-0.03679193,0.01031963,0.19999999,0.01150183,-0.02043750,0.03511980,-0.03685075,-0.04231516,0.36651915,-0.29670596,-0.03679824,-0.01638517,0.00244212,0.02122661,
902,0.23551409,-0.00634322,10.00037956,6.00000000,0.04995117,-0.06767578,-0.02308580,-0.07369699,-0.01099737,0.19999999,0.01150183,-0.03217893,0.02804987,-0.02997953,-0.04231516,0.49741885,-0.38746309,-0.07370457,-0.01676144,0.00244212,0.02654807,
910,0.36719519,-0.19787936,10.51992130,6.00000000,0.03706055,-0.05156250,-0.01242730,-0.13618244,-0.01339553,0.19999999,0.01150183,-0.04494995,0.01617114,-0.01821722,-0.04231516,0.60562927,-0.45204026,-0.13619603,-0.01661699,0.00244212,0.02827114,
918,0.48211688,-0.12605330,10.74258232,6.00000000,0.02094727,-0.03061523,-0.00922975,-0.18307984,-0.05030059,0.19999999,0.01150183,-0.01380933,0.00546980,-0.00639348,-0.04231516,0.54628801,-0.49916416,-0.18305291,-0.01751066,0.00244212,0.02445556,
926,0.29297492,-0.20506196,10.17755032,6.00000000,0.00805664,-0.01289062,0.04193105,-0.18268014,-0.06255786,0.19999999,0.01150183,-0.00766448,0.00253782,-0.00321499,-0.04231516,0.49567351,-0.46949357,-0.18268527,-0.01922298,0.00244212,0.02159494,
934,0.35043576,-0.37026188,9.68434525,6.00000000,0.00644531,-0.00483398,0.03526948,-0.15550098,-0.06255786,0.19999999,0.01150183,0.00613085,0.00279422,-0.00304720,-0.04231516,0.27227136,-0.29321530,-0.15550113,-0.02131115,0.00244212,0.00916195,
941,0.14214022,-0.21942717,9.31803226,5.00000000,0.00322266,-0.00322266,0.02301221,-0.06317171,-0.03684423,0.19999999,0.01150183,0.02551023,0.01986850,-0.01993781,-0.04231516,0.17802358,-0.26529005,-0.06319010,-0.02235641,0.00244212,0.01140895,
950,0.26185030,-0.29364741,8.65962696,6.00000000,0.02900391,-0.03544922,-0.00230172,0.00171190,-0.00207088,0.19999999,0.01150183,0.00663457,0.03170764,-0.03256836,-0.04231516,0.17278759,-0.19547687,0.00169358,-0.02293556,0.00244212,0.01337987,
958,0.33607057,-0.10929389,9.17677402,6.00000000,0.05478515,-0.05800781,-0.04680097,0.02569353,0.03829819,0.19999999,0.01150183,-0.00766595,0.03621990,-0.03759797,-0.04231516,0.25307274,-0.22689280,0.02566919,-0.02353338,0.00244212,0.01912467,
966,0.42944443,0.15646249,10.59653568,6.00000000,0.06123047,-0.06928711,-0.04080555,-0.00534935,0.05122162,0.19999999,0.01150183,0.00255943,0.02937323,-0.03030935,-0.04231516,0.23561946,-0.24434610,-0.00534143,-0.02390566,0.00244212,0.01689547,
974,0.50845307,0.08703065,11.18790436,6.00000000,0.04995117,-0.05961914,-0.03201230,-0.03958979,0.03683265,0.19999999,0.01150183,0.00000119,0.02053261,-0.02133829,-0.04231516,0.20071286,-0.20071286,-0.03957139,-0.02472013,0.00244212,0.01160339,
982,0.51324147,-0.09492868,10.72821712,6.00000000,0.03706055,-0.04350586,-0.00949621,-0.06277202,0.03030432,0.19999999,0.01150183,-0.01380158,0.01287454,-0.01388318,-0.04231516,0.12217305,-0.07504916,-0.06277813,-0.02566039,0.00244212,0.00258073,
990,0.48690528,-0.09492868,9.71307564,6.00000000,0.02578125,-0.03061523,-0.00163557,-0.05651015,-0.01805863,0.19999999,0.01150183,-0.01430003,0.01044458,-0.01139996,-0.04231516,0.04886922,0.00000000,-0.05649678,-0.02751821,0.00244212,-0.00230752,
998,0.45099223,0.07745384,8.80806732,6.00000000,0.01772461,-0.02578125,0.02594329,0.00797377,-0.05389783,0.19999999,0.01150183,-0.00257043,0.02225785,-0.02313655,-0.04231516,0.00000000,0.00872665,0.00793448,-0.02840718,0.00244212,0.00026045,
1006,0.31212854,-0.05662145,8.54709911,6.00000000,0.03383789,-0.04511719,0.04086519,0.07005954,-0.07201728,0.19999999,0.01150183,-0.00974151,0.03471505,-0.03607939,-0.04231516,0.04188791,-0.00872665,0.07005900,-0.02884017,0.00244212,0.00686484,
1013,0.33607057,0.00083939,9.20550442,5.00000000,0.05639648,-0.06928711,0.01848234,0.09444085,-0.06722096,0.19999999,0.01150183,-0.02551439,0.04080744,-0.04276533,-0.04231516,0.12391838,-0.03665191,0.09443055,-0.02843852,0.00244212,0.01258145,
1022,0.58267331,-0.04465045,10.29486656,6.00000000,0.06767578,-0.07895508,-0.01802301,0.06939338,-0.05123321,0.19999999,0.01150183,-0.06846078,0.03510998,-0.03817405,-0.04231516,0.26005405,-0.02617994,0.06940693,-0.02886162,0.00244212,0.01530198,
1030,0.71674865,-0.09492868,11.16635609,6.00000000,0.06123047,-0.07412110,-0.04307050,0.01503503,-0.03964209,0.19999999,0.01150183,-0.06997275,0.02245927,-0.02528179,-0.04231516,0.23911010,0.00000000,0.01503298,-0.02957092,0.00244212,0.00969140,
1038,0.62337476,0.07984804,11.05622292,6.00000000,0.04028320,-0.04995117,-0.00430019,-0.01121153,-0.03178144,0.19999999,0.01150183,-0.04802132,0.01524698,-0.01727694,-0.04231516,0.15184364,0.01221730,-0.01122203,-0.03054845,0.00244212,0.00421837,
1046,0.45578066,-0.11887070,9.89503479,6.00000000,0.03222656,-0.03867187,0.03020670,-0.00681490,-0.04710304,0.19999999,0.01150183,-0.00459508,0.01502809,-0.01580682,-0.04231516,0.01047198,0.00523599,-0.00682865,-0.03116953,0.00244212,-0.00030545,
1054,0.24269669,-0.27928221,8.85834599,6.00000000,0.02900391,-0.03544922,0.03260486,0.04034896,-0.03497899,0.19999999,0.01150183,0.00001381,0.02504028,-0.02590930,-0.04231516,0.00000000,0.00000000,0.04032396,-0.03103267,0.00244212,0.00290149,
1062,0.26185030,-0.06619826,8.43457222,6.00000000,0.04189453,-0.05156250,0.01288663,0.09550670,-0.00899890,0.19999999,0.01150183,-0.00561489,0.03709586,-0.03839526,-0.04231516,0.02792527,-0.00872665,0.09551710,-0.03071621,0.00244212,0.00819644,
1070,0.24748510,-0.05183305,9.27493668,6.00000000,0.05800781,-0.07412110,-0.01296024,0.12601665,0.00379130,0.19999999,0.01150183,-0.00613351,0.04508473,-0.04658208,-0.04231516,0.06283185,-0.04188791,0.12602055,-0.02988439,0.00244212,0.01284329,
1078,0.40789661,-0.05422725,10.13445473,6.00000000,0.07089844,-0.08862305,-0.03067999,0.12308556,0.03483418,0.19999999,0.01150183,-0.01838933,0.04609022,-0.04797269,-0.04231516,0.16057029,-0.09773844,0.12306029,-0.02930895,0.00244212,0.01815893,
1085,0.53478932,-0.05901565,10.62766075,5.00000000,0.07250977,-0.09184571,-0.04373665,0.06446382,0.03030432,0.19999999,0.01150183,-0.03423028,0.03410086,-0.03617853,-0.04231516,0.24260075,-0.12566370,0.06447180,-0.02949212,0.00244212,0.01789929,
1094,0.55633712,0.17322192,10.90299416,6.00000000,0.05317383,-0.07573242,-0.03121291,-0.00508289,0.01444980,0.19999999,0.01150183,-0.02810081,0.01807429,-0.01962890,-0.04231516,0.26005405,-0.16406095,-0.00509012,-0.03082361,0.00244212,0.01490203,
1102,0.31212854,-0.08056347,10.52231598,6.00000000,0.02900391,-0.04511719,0.01448541,-0.02560050,-0.01765893,0.19999999,0.01150183,-0.02657139,0.01270293,-0.01407586,-0.04231516,0.15882497,-0.06806784,-0.02560955,-0.03080329,0.00244212,0.00632514,
1110,0.13735183,-0.12605330,9.85193920,6.00000000,0.02255859,-0.03544922,0.02740884,0.01450210,-0.04403872,0.19999999,0.01150183,-0.01480729,0.02063995,-0.02183717,-0.04231516,0.05061455,0.00000000,0.01450996,-0.03047184,0.00244212,0.00286654,
1118,0.28818652,-0.17872573,8.32204437,6.00000000,0.03061523,-0.04833984,0.02740884,0.10163534,-0.07281667,0.19999999,0.01150183,0.00255749,0.03893382,-0.04003714,-0.04231516,-0.00872665,0.00000000,0.10166294,-0.03024684,0.00244212,0.00700614,
1126,0.06073736,-0.01831423,8.35077477,6.00000000,0.05639648,-0.07734375,0.05245630,0.14746688,-0.05549661,0.19999999,0.01150183,-0.00767824,0.05079763,-0.05246866,-0.04231516,0.08377581,-0.05759586,0.14750412,-0.02918688,0.00244212,0.01570730,
1134,0.40071401,-0.35829088,9.71307564,6.00000000,0.07250977,-0.09829102,-0.00936298,0.15612692,-0.03377991,0.19999999,0.01150183,-0.04444379,0.05490755,-0.05773425,-0.04231516,0.25307274,-0.10122910,0.15612803,-0.02815270,0.00244212,0.02399584,
1142,0.70956600,-0.10211129,10.52470970,6.00000000,0.08056641,-0.11279297,-0.05652684,0.11415908,-0.01539400,0.19999999,0.01150183,-0.09806851,0.04863325,-0.05285902,-0.04231516,0.42411500,-0.08901179,0.11416513,-0.02668791,0.00244212,0.02669266,
1150,0.54197192,-0.25534019,11.34352684,6.00000000,0.07089844,-0.10957031,-0.06651919,0.03501971,-0.02032356,0.19999999,0.01150183,-0.12821811,0.03270565,-0.03744949,-0.04231516,0.54977870,-0.11170107,0.03501554,-0.02667685,0.00244212,0.02633618,
1157,0.56112552,-0.08056347,11.14959621,5.00000000,0.04995117,-0.08217774,-0.04760034,-0.02986390,-0.06335725,0.19999999,0.01150183,-0.13384947,0.01878018,-0.02338413,-0.04231516,0.60213858,-0.14486232,-0.02984612,-0.02727671,0.00244212,0.02474594,
1166,0.42705023,-0.14520691,9.92137146,6.00000000,0.03061523,-0.05317383,0.02434451,-0.05291291,-0.13690090,0.19999999,0.01150183,-0.09655017,0.01312034,-0.01653063,-0.04231516,0.49218285,-0.16231562,-0.05288864,-0.02784463,0.00244212,0.01975257,
1174,0.26424450,-0.06859246,8.83679771,6.00000000,0.01933594,-0.03544922,0.08110103,0.01330302,-0.20364976,0.19999999,0.01150183,-0.04442549,0.02689044,-0.02912396,-0.04231516,0.39618975,-0.24434610,0.01330647,-0.02824078,0.00244212,0.02402128,
1182,0.11819821,-0.38223287,8.23585320,6.00000000,0.04833984,-0.05639648,0.09322507,0.08191711,-0.17913520,0.19999999,0.01150183,-0.04751798,0.04213192,-0.04479126,-0.04231516,0.40491641,-0.24260075,0.08194122,-0.02756938,0.00244212,0.02920870,
1190,0.24509090,-0.37026188,8.80327892,6.00000000,0.06767578,-0.08378907,0.01368602,0.13840716,-0.15142310,0.19999999,0.01150183,-0.06438068,0.05444743,-0.05785643,-0.04231516,0.42411500,-0.20420352,0.13844308,-0.02693817,0.00244212,0.03258984,
1198,0.19241846,-0.45405895,9.76335430,6.00000000,0.08862305,-0.10634766,-0.01948857,0.15559398,-0.07228374,0.19999999,0.01150183,-0.08632247,0.06124744,-0.06545820,-0.04231516,0.60737455,-0.31241393,0.15558201,-0.02574195,0.00244212,0.04431274,
1206,0.49648207,-0.37744448,10.70666981,6.00000000,0.09667969,-0.11601563,-0.05905826,0.06179919,-0.00433581,0.19999999,0.01150183,-0.05003816,0.04630442,-0.04919753,-0.04231516,0.77318084,-0.60213858,0.06178354,-0.02491909,0.00244212,0.05395893,
1214,0.57070231,-0.07338087,11.14241409,6.00000000,0.07089844,-0.08701172,-0.05772594,-0.06437080,0.02697353,0.19999999,0.01150183,-0.04443578,0.02037613,-0.02256917,-0.04231516,0.93200582,-0.78016222,-0.06435502,-0.02615026,0.00244212,0.05700743,
1222,0.30973434,-0.14520691,11.33395004,6.00000000,0.03061523,-0.04511719,-0.04466927,-0.15909821,0.03083724,0.19999999,0.01150183,-0.02910762,0.00081529,-0.00215179,-0.04231516,0.96691245,-0.86742866,-0.15907161,-0.02672914,0.00244212,0.05458371,
1229,-0.09249154,0.09660745,10.59174728,5.00000000,0.00322266,-0.00644531,0.00076259,-0.18094814,0.01338395,0.19999999,0.01150183,0.03321697,-0.00391826,0.00446569,-0.04231516,0.81506878,-0.92851520,-0.18094984,-0.02709034,0.00244212,0.04974154,
1238,-0.04221331,0.01520460,9.01636314,6.00000000,-0.00322266,0.00322266,0.04686060,-0.12965411,-0.00686720,0.19999999,0.01150183,0.01836742,0.00353627,-0.00353941,-0.04231516,0.65275317,-0.71558499,-0.12971394,-0.02755743,0.00244212,0.03992333,
1246,0.07749677,0.01999300,7.92460680,6.00000000,0.00966797,-0.01289062,-0.00136911,0.01277010,-0.02005710,0.19999999,0.01150183,-0.00919943,0.03016884,-0.03151595,-0.04231516,0.54977870,-0.51836282,0.01271111,-0.02800942,0.00244212,0.03937005,
1254,0.04876636,0.35518125,8.30767918,6.00000000,0.04350586,-0.05961914,-0.01589133,0.13321114,-0.05976001,0.19999999,0.01150183,-0.00764907,0.05511621,-0.05695442,-0.04231516,0.45902157,-0.43284163,0.13316067,-0.02734100,0.00244212,0.04169522,
1262,0.38395458,0.06069443,8.97566128,6.00000000,0.09023438,-0.10634766,0.02940731,0.18383901,-0.04004178,0.19999999,0.01150183,-0.00716614,0.06718080,-0.06928888,-0.04231516,0.54279739,-0.51836282,0.18384847,-0.02698121,0.00244212,0.05143695,
1270,0.44859803,0.28814360,10.73061180,6.00000000,0.10312500,-0.12407227,0.01408571,0.11735663,-0.07081820,0.19999999,0.01150183,0.04188566,0.05698668,-0.05750315,-0.04231516,0.60213858,-0.74525559,0.11738060,-0.02621663,0.00244212,0.05696319,
1278,0.60661536,-0.09732288,11.61646557,6.00000000,0.08540039,-0.09990235,0.01035523,-0.01427585,0.00952024,0.19999999,0.01150183,0.04650381,0.03198649,-0.03186151,-0.04231516,0.81681406,-0.97563910,-0.01429711,-0.02650177,0.00244212,0.06350180,
1286,0.55154872,-0.54025018,11.89419365,6.00000000,0.04350586,-0.05800781,-0.04813328,-0.17202164,0.06880815,0.19999999,0.01150183,-0.03932305,-0.00136370,-0.00023810,-0.04231516,1.10304809,-0.96865773,-0.17200688,-0.02722974,0.00244212,0.06219641,
1294,-0.04221331,0.38151747,10.87905216,6.00000000,0.00000000,-0.00805664,-0.07318075,-0.21758673,0.06387859,0.19999999,0.01150183,-0.03879754,-0.01274943,0.01143550,-0.04231516,0.99483770,-0.86219269,-0.21756119,-0.02767392,0.00244212,0.05119129,
1301,-0.05418432,0.32884502,9.71307564,5.00000000,-0.01289062,0.01450195,-0.01948857,-0.18840908,0.04296128,0.19999999,0.01150183,-0.01988821,-0.00966492,0.00885923,-0.04231516,0.75921822,-0.69115037,-0.18840495,-0.02820051,0.00244212,0.03864758,
1310,0.02243014,0.25701898,7.31887388,6.00000000,-0.00644531,0.00644531,0.01022201,0.00384360,-0.00020564,0.19999999,0.01150183,-0.00408470,0.02563591,-0.02672880,-0.04231516,0.49392816,-0.47996554,0.00379400,-0.02944612,0.00244212,0.03533074,
1318,-0.17628860,0.35757545,7.27098989,6.00000000,0.04511719,-0.04995117,0.03180547,0.14786658,-0.06881973,0.19999999,0.01150183,0.01327016,0.05577207,-0.05702846,-0.04231516,0.40840703,-0.45378560,0.14787713,-0.02898550,0.00244212,0.04168494,
1326,0.40310821,-0.01113162,8.27176666,6.00000000,0.08540039,-0.10312500,0.05072431,0.22940411,-0.07135113,0.19999999,0.01150183,0.03322184,0.07643350,-0.07760041,-0.04231516,0.47822019,-0.59166664,0.22937153,-0.02750959,0.00244212,0.05503418,
1334,0.71435446,-0.11168809,10.33078003,6.00000000,0.11762695,-0.14018555,0.04606121,0.16718510,-0.06175847,0.19999999,0.01150183,0.02344612,0.06773988,-0.06903999,-0.04231516,0.74351025,-0.82379544,0.16725020,-0.02662309,0.00244212,0.06846423,
1342,0.82448769,-0.37983868,12.45443630,6.00000000,0.09990235,-0.12246094,-0.01855594,-0.00215180,0.02644061,0.19999999,0.01150183,0.01173749,0.03513417,-0.03609388,-0.04231516,1.01578164,-1.05592418,-0.00217809,-0.02684623,0.00244212,0.07442296,
1350,0.61379796,-0.38223287,12.58611774,6.00000000,0.04833984,-0.07089844,-0.10395716,-0.18760970,0.08985868,0.19999999,0.01150183,-0.04601618,-0.00278431,0.00099409,-0.04231516,1.26710904,-1.11002934,-0.18758285,-0.02717420,0.00244212,0.07206618,
1358,0.20917787,-0.15238953,11.72420502,6.00000000,0.00483398,-0.00805664,-0.12660648,-0.28326970,0.09771932,0.19999999,0.01150183,-0.10173351,-0.02700425,0.02419433,-0.04231516,1.22347581,-0.87615532,-0.28324166,-0.02845269,0.00244212,0.05518801,
1366,-0.00390608,0.45094931,9.83278561,6.00000000,-0.03061523,0.03706055,-0.07424660,-0.22451477,0.06041458,0.19999999,0.01150183,-0.04033574,-0.02134235,0.02022163,-0.04231516,0.75223690,-0.61435592,-0.22446758,-0.03043351,0.00244212,0.03303046,
1373,-0.40134355,0.43897828,7.72588825,5.00000000,-0.02739258,0.03061523,0.03726795,-0.00028657,-0.06122555,0.19999999,0.01150183,-0.00053640,0.02018402,-0.02104238,-0.04231516,0.41538835,-0.41364303,-0.00035366,-0.03191833,0.00244212,0.02981442,
1382,-0.22417264,-0.16675474,6.23908901,6.00000000,0.03706055,-0.03706055,0.07657117,0.18756948,-0.09080289,0.19999999,0.01150183,0.02911964,0.05922192,-0.06007398,-0.04231516,0.21991149,-0.31939524,0.18753140,-0.03099330,0.00244212,0.03291987,
1390,0.11580400,-0.14281271,6.96692610,6.00000000,0.09023438,-0.10957031,0.06777790,0.28789261,-0.09986261,0.19999999,0.01150183,0.00560395,0.08442234,-0.08653872,-0.04231516,0.45902157,-0.47822019,0.28789598,-0.02943897,0.00244212,0.05447253,
1398,0.64492255,-0.00155482,9.55027008,6.00000000,0.12568359,-0.15468749,0.07763702,0.23646536,-0.06428987,0.19999999,0.01150183,0.01071920,0.07918178,-0.08109546,-0.04231516,0.75398225,-0.79063416,0.23636399,-0.02829648,0.00244212,0.07262736,
1406,0.28579232,-1.03106153,12.67949200,6.00000000,0.11279297,-0.14501953,-0.06838442,0.05273947,0.00805470,0.19999999,0.01150183,-0.00457670,0.04866227,-0.05041661,-0.04231516,1.20602250,-1.19031453,0.05264348,-0.02653726,0.00244212,0.09005857,
1414,0.51324147,-0.46602994,13.84307384,6.00000000,0.07412110,-0.09506836,-0.13633236,-0.21438919,0.09492147,0.19999999,0.01150183,-0.08893377,-0.00497248,0.00197782,-0.04231516,1.51669109,-1.21300387,-0.21437183,-0.02594680,0.00244212,0.08282883,
1422,0.39831981,-0.41096330,12.74413490,6.00000000,0.00322266,-0.00966797,-0.13833085,-0.35974443,0.12383264,0.19999999,0.01150183,-0.10472454,-0.04015277,0.03751877,-0.04231516,1.38579142,-1.02799892,-0.35970861,-0.02788704,0.00244212,0.06099467,
1430,-0.15952919,0.46052611,10.51752758,6.00000000,-0.05156250,0.05961914,-0.12287600,-0.28486848,0.06667645,0.19999999,0.01150183,-0.02401451,-0.03174892,0.03130973,-0.04231516,0.79063416,-0.70860362,-0.28478190,-0.02973725,0.00244212,0.03346612,
1438,-0.46119860,0.33602762,6.99565649,6.00000000,-0.04833984,0.05156250,0.03953288,-0.02373527,-0.01872478,0.19999999,0.01150183,-0.02502742,0.01405778,-0.01547018,-0.04231516,0.42586035,-0.34033921,-0.02385736,-0.03226772,0.00244212,0.02586734,
1445,-0.04460751,-0.16675474,5.27183151,5.00000000,0.01611328,-0.02255859,0.07284069,0.16598602,-0.08440779,0.19999999,0.01150183,0.03575771,0.05381374,-0.05435757,-0.04231516,0.20769417,-0.32986721,0.16596813,-0.03166363,0.00244212,0.03130127,
1454,0.10383300,0.06069443,5.99248600,6.00000000,0.07412110,-0.09667969,0.09615616,0.30214834,-0.14742616,0.19999999,0.01150183,0.02243454,0.08731943,-0.08903706,-0.04231516,0.50614548,-0.58293998,0.30212310,-0.03021950,0.00244212,0.06095900,
1462,0.23072569,-0.23618658,9.40901184,6.00000000,0.12246094,-0.15629883,0.11374268,0.25285283,-0.08880442,0.19999999,0.01150183,0.02863486,0.08613855,-0.08773891,-0.04231516,0.93724179,-1.03498018,0.25291842,-0.02782103,0.00244212,0.08920999,
1470,1.32727003,-1.18429041,12.86623955,6.00000000,0.12729493,-0.15791015,-0.03347784,0.02742553,-0.03298052,0.19999999,0.01150183,0.01786555,0.04518088,-0.04624654,-0.04231516,1.30027032,-1.36135685,0.02734266,-0.02662877,0.00244212,0.09778895,
1478,0.60900956,-0.73178631,14.76484108,6.00000000,0.08378907,-0.09506836,-0.14339364,-0.20932640,0.06747583,0.19999999,0.01150183,-0.08681554,-0.00386407,0.00088629,-0.04231516,1.60744822,-1.31074226,-0.20934634,-0.02665620,0.00244212,0.08997830,
1486,-0.17150021,-0.28167641,14.51823807,6.00000000,-0.00161133,-0.00805664,-0.18576115,-0.35721308,0.12409912,0.19999999,0.01150183,-0.14509134,-0.03697725,0.03313435,-0.04231516,1.41895270,-0.92327923,-0.35690039,-0.02553530,0.00244212,0.05862145,
1494,0.22114888,0.58263040,10.67793846,6.00000000,-0.05639648,0.05639648,-0.12634002,-0.31178120,0.09652025,0.19999999,0.01150183,-0.14136793,-0.03577564,0.03207264,-0.04231516,1.09432149,-0.61086524,-0.31184518,-0.02840933,0.00244212,0.03893893,
1502,0.23551409,0.56587100,7.08903074,6.00000000,-0.05478515,0.05961914,-0.02601689,-0.12006146,-0.07934500,0.19999999,0.01150183,-0.03988194,-0.00297075,0.00149639,-0.04231516,0.54279739,-0.40666169,-0.12018006,-0.03092849,0.00244212,0.02552459,
1510,-0.17150021,0.21392334,5.57350111,6.00000000,-0.00483398,0.00966797,0.12107040,0.13734131,-0.19525617,0.19999999,0.01150183,0.04845505,0.05024906,-0.05037388,-0.04231516,0.29321530,-0.45902157,0.13730592,-0.03106509,0.00244212,0.03695695,
1517,-0.22177844,0.10618426,6.13613844,5.00000000,0.07089844,-0.07895508,0.26269519,0.29029080,-0.19259158,0.19999999,0.01150183,0.08313632,0.08459769,-0.08452053,-0.04231516,0.34906584,-0.63355452,0.29047480,-0.03057459,0.00244212,0.05628754,
1526,0.14453442,-0.67193127,7.65885067,6.00000000,0.12729493,-0.15146485,0.18755278,0.27137193,-0.19872020,0.19999999,0.01150183,0.09774724,0.08940571,-0.08910201,-0.04231516,0.75049156,-1.08384943,0.27149636,-0.02830966,0.00244212,0.08557293,
1534,0.83885294,-1.23456872,11.95404816,6.00000000,0.13535157,-0.16918945,-0.00709806,0.06779461,-0.01392846,0.19999999,0.01150183,-0.02500074,0.04933856,-0.05170817,-0.04231516,1.33866751,-1.25314641,0.06767476,-0.02870147,0.00244212,0.09818467,
1542,1.01123548,-0.80600661,14.45120049,6.00000000,0.07573242,-0.10795899,-0.19895107,-0.13511659,0.14808074,0.19999999,0.01150183,-0.19250724,0.00604621,-0.01222574,-0.04231516,1.68075216,-1.02276289,-0.13515073,-0.02840467,0.00244212,0.08760911,
1550,-0.10685676,-0.23379238,14.64034271,6.00000000,0.00805664,-0.02739258,-0.31446254,-0.30405378,0.14408378,0.19999999,0.01150183,-0.23562697,-0.02971687,0.02312452,-0.04231516,1.65457213,-0.84997535,-0.30418181,-0.02771343,0.00244212,0.06825495,
1558,0.14692862,0.65445644,10.97960854,6.00000000,-0.03544922,0.04028320,-0.15818229,-0.34122530,0.05814964,0.19999999,0.01150183,-0.12560959,-0.04326326,0.04016026,-0.04231516,1.13271868,-0.70336765,-0.34118074,-0.02998780,0.00244212,0.04153477,
1566,0.39592561,0.80529118,7.97727919,6.00000000,-0.05317383,0.07734375,0.07737055,-0.15456834,-0.14942464,0.19999999,0.01150183,0.05367464,-0.01103250,0.01238751,-0.04231516,0.41364303,-0.59690261,-0.15459618,-0.03265072,0.00244212,0.02524894,
1574,-0.53541887,0.15167409,5.78897905,6.00000000,-0.01127930,0.02416992,0.25363547,0.15093090,-0.21470796,0.19999999,0.01150183,0.16858447,0.04816112,-0.04481116,-0.04231516,-0.00349066,-0.57246798,0.15090658,-0.03468304,0.00244212,0.03134270,
1582,-0.22417264,-0.28167641,5.89192963,6.00000000,0.07412110,-0.07412110,0.29320517,0.32373184,-0.16168192,0.19999999,0.01150183,0.11508908,0.08711190,-0.08616799,-0.04231516,0.21293017,-0.60562927,0.32352677,-0.03306900,0.00244212,0.05277015,
1589,0.14692862,-1.04303253,7.72588825,5.00000000,0.13535157,-0.15952149,0.14025570,0.31347305,-0.09253489,0.19999999,0.01150183,0.07916641,0.09225901,-0.09251025,-0.04231516,0.59166664,-0.86219269,0.31349412,-0.03047898,0.00244212,0.07490338,
1598,0.47732845,-1.33033681,11.59731197,6.00000000,0.13535157,-0.17563477,-0.14805672,0.13094622,0.10224918,0.19999999,0.01150183,-0.10011375,0.06086447,-0.06560149,-0.04231516,1.35786617,-1.01578164,0.13083291,-0.02816731,0.00244212,0.09486303,
1606,1.02320647,-0.32237783,13.81913185,6.00000000,0.09023438,-0.12729493,-0.28075501,-0.10420695,0.23588012,0.19999999,0.01150183,-0.20182545,0.01338548,-0.01999227,-0.04231516,1.69820547,-1.00880027,-0.10426091,-0.02771517,0.00244212,0.08994768,
1614,0.63773996,0.09660745,14.06094551,6.00000000,0.03061523,-0.03706055,-0.28368610,-0.29566023,0.13329206,0.19999999,0.01150183,-0.10578758,-0.02864828,0.02570160,-0.04231516,1.52367246,-1.16238928,-0.29564422,-0.03009228,0.00244212,0.07541288,
1622,-0.05179011,0.79571438,11.56618786,6.00000000,-0.02739258,0.04672851,-0.04839975,-0.32950094,0.01751412,0.19999999,0.01150183,0.03579893,-0.03920702,0.04058608,-0.04231516,0.92153382,-1.04370689,-0.32947266,-0.03093278,0.00244212,0.04702467,
1630,0.07270838,1.14766204,8.97805595,6.00000000,-0.05156250,0.07250977,0.23005356,-0.15323605,-0.11118726,0.19999999,0.01150183,0.15935513,-0.00845490,0.01272846,-0.04231516,0.36651915,-0.91106188,-0.15335691,-0.03316062,0.00244212,0.03495481,
1638,0.12777501,-0.21463877,5.96136141,6.00000000,-0.01450195,0.01772461,0.25243640,0.11735663,-0.14849202,0.19999999,0.01150183,0.17102429,0.04187232,-0.03832245,-0.04231516,0.03665191,-0.62133718,0.11746663,-0.03463676,0.00244212,0.03215875,
1646,0.05594896,-0.45884734,6.31091499,6.00000000,0.05800781,-0.07250977,0.16876718,0.30174869,-0.10052877,0.19999999,0.01150183,0.03883398,0.07986879,-0.08091769,-0.04231516,0.27576202,-0.40840703,0.30182740,-0.03362982,0.00244212,0.04636891,
1654,0.19481266,-1.02148473,8.14487362,6.00000000,0.11440430,-0.15629883,0.00982231,0.32586351,-0.02312141,0.19999999,0.01150183,-0.09044160,0.08953186,-0.09450991,-0.04231516,0.72256637,-0.41364303,0.32594955,-0.03112842,0.00244212,0.06437222,
1661,0.49169368,-0.71263272,10.29726124,5.00000000,0.12729493,-0.18046875,-0.22599700,0.19449751,0.03376833,0.19999999,0.01150183,-0.17008579,0.06824461,-0.07508514,-0.04231516,1.23045707,-0.64926249,0.19440903,-0.02937751,0.00244212,0.08166162,
1670,0.76702684,0.23068275,13.30198383,6.00000000,0.10473633,-0.13696289,-0.19402149,-0.03026360,0.06494444,0.19999999,0.01150183,-0.17875290,0.02560832,-0.03180327,-0.04231516,1.51669109,-0.90582591,-0.03035364,-0.02884299,0.00244212,0.08502866,
1678,0.64252836,0.27856678,13.31156063,6.00000000,0.05478515,-0.05317383,-0.07811029,-0.21891904,-0.02285495,0.19999999,0.01150183,-0.04955604,-0.01257369,0.01088469,-0.04231516,1.34390354,-1.17460668,-0.21890190,-0.02985056,0.00244212,0.07490730,
1686,-0.48514062,0.49165073,12.31796741,6.00000000,-0.01289062,0.01450195,0.07430623,-0.28473526,-0.10345986,0.19999999,0.01150183,0.06229787,-0.02359498,0.02536194,-0.04231516,0.98087507,-1.19380522,-0.28459555,-0.02786607,0.00244212,0.05779584,
1694,0.17326485,0.64727384,9.04988194,6.00000000,-0.03544922,0.03867187,0.17875953,-0.18521155,-0.11798206,0.19999999,0.01150183,0.03482446,-0.01067391,0.01143546,-0.04231516,0.70860362,-0.82728606,-0.18512627,-0.03014862,0.00244212,0.04196221,
1702,-0.00151188,-0.44448212,6.78975534,6.00000000,-0.02094727,0.01289062,0.06484681,0.04474559,-0.07521483,0.19999999,0.01150183,-0.03727237,0.02985024,-0.03197087,-0.04231516,0.50265479,-0.37524578,0.04464877,-0.03154149,0.00244212,0.03482431,
1710,-0.08052053,-0.19069675,6.39231777,6.00000000,0.03706055,-0.06284180,-0.02948092,0.23539951,-0.07148436,0.19999999,0.01150183,-0.18541554,0.06898782,-0.07617989,-0.04231516,0.74001962,-0.10646509,0.23537180,-0.03027675,0.00244212,0.04741703,
1718,0.30973434,-0.42293432,7.34281588,6.00000000,0.09990235,-0.14663085,-0.07664478,0.30108252,-0.08787180,0.19999999,0.01150183,-0.17774493,0.08791400,-0.09533725,-0.04231516,0.88488197,-0.27750733,0.30117843,-0.02811630,0.00244212,0.06352846,
1726,0.19002426,0.01041619,10.11051273,6.00000000,0.13535157,-0.17885742,-0.08303986,0.21927851,-0.14076461,0.19999999,0.01150183,-0.11951878,0.07937934,-0.08502034,-0.04231516,1.10304809,-0.69464105,0.21929994,-0.02562273,0.00244212,0.08050687,
1733,0.72393125,0.23547116,12.81596088,5.00000000,0.12568359,-0.15629883,0.04765999,0.03102278,-0.14356245,0.19999999,0.01150183,-0.06078171,0.04429623,-0.04754803,-0.04231516,1.29154360,-1.08384943,0.03096905,-0.02584912,0.00244212,0.08774321,
1742,0.84603554,-0.50194299,13.52943325,6.00000000,0.06445312,-0.08378907,0.02647621,-0.20039989,-0.14649355,0.19999999,0.01150183,-0.01842191,-0.00293384,0.00190089,-0.04231516,1.37357402,-1.31074226,-0.20036432,-0.02699420,0.00244212,0.08220723,
1750,0.04876636,-0.04465045,12.22698784,6.00000000,-0.00161133,-0.00322266,-0.00709806,-0.29792514,-0.07374929,0.19999999,0.01150183,-0.08992478,-0.02651503,0.02399448,-0.04231516,1.38579142,-1.07861352,-0.29788184,-0.02768006,0.00244212,0.06727106,
1758,-0.03742491,-0.04704465,10.15600300,6.00000000,-0.03383789,0.03222656,-0.05159728,-0.26275212,0.00179283,0.19999999,0.01150183,-0.17362131,-0.02532261,0.02044591,-0.04231516,1.28107166,-0.68765974,-0.26266804,-0.02895861,0.00244212,0.05195819,
1766,0.19241846,-0.00394902,7.33563328,6.00000000,-0.03222656,0.02900391,-0.12634002,-0.05477814,-0.06349048,0.19999999,0.01150183,-0.14560655,0.00968071,-0.01445377,-0.04231516,0.80110615,-0.30368727,-0.05485643,-0.03111976,0.00244212,0.03581374,
1774,-0.43486238,0.17561612,6.52399921,6.00000000,0.02416992,-0.03544922,-0.00323436,0.19782829,-0.10519186,0.19999999,0.01150183,-0.12260473,0.06416946,-0.06945938,-0.04231516,0.57944930,-0.16057029,0.19779795,-0.02851112,0.00244212,0.04088226,
1782,0.27382132,-0.13802432,6.78257275,6.00000000,0.09184571,-0.12890625,0.09202599,0.30974254,-0.15568650,0.19999999,0.01150183,-0.08784092,0.09225293,-0.09721079,-0.04231516,0.69464105,-0.39444441,0.30982903,-0.02700640,0.00244212,0.06151330,
1790,0.40789661,0.02956981,8.12572002,6.00000000,0.13374023,-0.17885742,0.07790348,0.26897380,-0.19951957,0.19999999,0.01150183,-0.04285274,0.09161113,-0.09534161,-0.04231516,0.95469511,-0.80808741,0.26922786,-0.02496873,0.00244212,0.08284579,
1798,0.31691694,-0.50433719,12.31317902,6.00000000,0.13535157,-0.17402343,0.04126489,0.08191711,-0.19085956,0.19999999,0.01150183,-0.08014835,0.06103078,-0.06523576,-0.04231516,1.49749255,-1.22347581,0.08185148,-0.02296284,0.00244212,0.10384810,
1806,0.71914285,-0.61686468,13.80955505,6.00000000,0.09667969,-0.16757813,-0.03174584,-0.18734322,-0.10905557,0.19999999,0.01150183,-0.12411843,0.00691635,-0.01122743,-0.04231516,1.85703039,-1.43291533,-0.18732548,-0.02368831,0.00244212,0.10495153,
1814,0.47254005,-0.41335750,13.83828545,6.00000000,0.01127930,-0.03222656,-0.07331400,-0.39944732,-0.04257318,0.19999999,0.01150183,-0.12616129,-0.04114285,0.03785478,-0.04231516,1.77150917,-1.34041297,-0.39933103,-0.02568415,0.00244212,0.08328126,
1822,0.18044744,-0.22182137,11.26930714,6.00000000,-0.06445312,0.05961914,-0.09143342,-0.37999558,0.02870554,0.19999999,0.01150183,-0.21921900,-0.04629203,0.04053080,-0.04231516,1.63537347,-0.88662726,-0.37985238,-0.02852471,0.00244212,0.06345251,
1830,-0.31515229,0.34321022,8.14487362,6.00000000,-0.06284180,0.07250977,-0.12673971,-0.16749178,-0.06748742,0.19999999,0.01150183,-0.20022225,-0.01199527,0.00612274,-0.04231516,1.04021621,-0.35604715,-0.16765587,-0.03063899,0.00244212,0.03820042,
1838,-0.32472911,0.61136085,5.79855585,6.00000000,-0.01289062,0.00966797,-0.02708273,0.11735663,-0.19672172,0.19999999,0.01150183,-0.10066429,0.04689922,-0.05118342,-0.04231516,0.54105204,-0.19722220,0.11733851,-0.02910281,0.00244212,0.03502138,
1846,-0.04700171,-0.03507364,5.61899090,6.00000000,0.06767578,-0.09023438,0.16077331,0.31134132,-0.19578910,0.19999999,0.01150183,-0.05877099,0.08851418,-0.09254806,-0.04231516,0.56025064,-0.35953784,0.31135893,-0.02927203,0.00244212,0.05553543,
1854,0.43423283,-0.50433719,6.60540199,6.00000000,0.13535157,-0.16274413,0.18195708,0.32732907,-0.24734960,0.19999999,0.01150183,0.02863799,0.10078712,-0.10267430,-0.04231516,0.74700093,-0.84473938,0.32741821,-0.02685262,0.00244212,0.08086695,
1862,0.44380963,-0.66953707,11.20466328,6.00000000,0.14663085,-0.18369141,0.11467530,0.16945004,-0.21124394,0.19999999,0.01150183,-0.00463267,0.07815093,-0.08059181,-0.04231516,1.37357402,-1.35786617,0.16947471,-0.02438573,0.00244212,0.11054800,
1870,1.15009916,-1.10528183,14.13516617,6.00000000,0.11440430,-0.14985351,-0.03387755,-0.12219316,0.00312514,0.19999999,0.01150183,-0.11952401,0.01931839,-0.02379366,-0.04231516,1.94778740,-1.53938031,-0.12223460,-0.02520588,0.00244212,0.11673527,
1877,1.05911946,-0.40378070,14.84385014,5.00000000,0.04511719,-0.05961914,-0.20228186,-0.37546572,0.07240539,0.19999999,0.01150183,-0.16844317,-0.03968037,0.03513452,-0.04231516,1.96175015,-1.38579142,-0.37537110,-0.02849425,0.00244212,0.09348321,
1886,-0.29839289,0.15646249,13.16312027,6.00000000,-0.05800781,0.05639648,-0.21920219,-0.37853003,0.09572086,0.19999999,0.01150183,-0.19365466,-0.04468045,0.03960380,-0.04231516,1.62315619,-0.96167642,-0.37850696,-0.02813550,0.00244212,0.06580039,
1894,-0.41092038,-0.00634322,8.70511627,6.00000000,-0.06767578,0.07573242,-0.10488980,-0.25222683,-0.00686720,0.19999999,0.01150183,-0.13280182,-0.02618336,0.02251710,-0.04231516,1.04545224,-0.59166664,-0.25232580,-0.03001363,0.00244212,0.04076467,
1902,-0.09009735,0.59220719,5.57828951,6.00000000,-0.03867187,0.04995117,0.04486213,0.00157867,-0.18433121,0.19999999,0.01150183,-0.01843046,0.02343575,-0.02489309,-0.04231516,0.54454273,-0.48171088,0.00156078,-0.03065203,0.00244212,0.03705666,
1910,-0.26008567,0.52756375,5.39632988,6.00000000,0.02900391,-0.03544922,0.23658189,0.23033671,-0.22030365,0.19999999,0.01150183,0.05007766,0.07330705,-0.07393481,-0.04231516,0.48869219,-0.65973443,0.23029248,-0.03014155,0.00244212,0.05792560,
1918,0.92983258,-0.38941550,6.03079367,6.00000000,0.11118164,-0.13051757,0.24843946,0.29681912,-0.22749814,0.19999999,0.01150183,0.06899340,0.08350184,-0.08387920,-0.04231516,0.75747293,-0.99309236,0.29683793,-0.03500967,0.00244212,0.08439898,
1926,0.52042407,-0.92811090,10.42894173,6.00000000,0.12890625,-0.15952149,0.06431389,0.20369047,-0.15901728,0.19999999,0.01150183,-0.03314480,0.06954528,-0.07256924,-0.04231516,1.21649444,-1.10304809,0.20369062,-0.03277706,0.00244212,0.09817402,
1934,0.42465603,-0.88022685,13.92447662,6.00000000,0.09990235,-0.14179687,-0.12167692,0.02929077,0.03976373,0.19999999,0.01150183,-0.17978828,0.03670077,-0.04320836,-0.04231516,1.70518661,-1.09083080,0.02919787,-0.03109979,0.00244212,0.10275957,
1942,0.74787325,-0.49954876,14.16389656,6.00000000,0.05639648,-0.08056641,-0.25290969,-0.23703851,0.12649727,0.19999999,0.01150183,-0.23569039,-0.01736697,0.01046054,-0.04231516,1.84655845,-1.04196155,-0.23717348,-0.03021025,0.00244212,0.08692130,
1949,0.17087065,0.60178399,12.83750916,5.00000000,-0.00805664,0.01611328,-0.22120067,-0.32976744,0.04069635,0.19999999,0.01150183,-0.13072217,-0.03940538,0.03599548,-0.04231516,1.52716315,-1.08035886,-0.32960966,-0.03198626,0.00244212,0.07013752,
1958,0.15889964,0.55868840,10.09854221,6.00000000,-0.05156250,0.06606445,0.05165692,-0.28406912,-0.02578604,0.19999999,0.01150183,0.03320966,-0.03557710,0.03682176,-0.04231516,0.81855947,-0.93200582,-0.28409183,-0.03384629,0.00244212,0.04255917,
1966,-0.20023063,-0.36068508,6.60540199,6.00000000,-0.05156250,0.06284180,0.15264621,-0.02107064,-0.16234806,0.19999999,0.01150183,0.12658182,0.01448859,-0.01162046,-0.04231516,0.24609143,-0.67893308,-0.02129513,-0.03436964,0.00244212,0.03177997,
1974,-0.84187669,0.49404493,6.87594652,6.00000000,0.01611328,-0.02255859,0.23791420,0.22607332,-0.14729293,0.19999999,0.01150183,0.08584203,0.07083236,-0.07033837,-0.04231516,0.16755162,-0.46076691,0.22606674,-0.02949891,0.00244212,0.03890685,
1982,1.39909613,-0.76769936,6.02839899,6.00000000,0.09990235,-0.13051757,0.15224651,0.33319128,-0.09719799,0.19999999,0.01150183,0.04393977,0.09265220,-0.09386119,-0.04231516,0.38746309,-0.53756142,0.33327419,-0.03051345,0.00244212,0.05728318,
1990,0.92025578,-1.00233114,8.81285572,6.00000000,0.12890625,-0.17885742,-0.09343190,0.29228926,-0.01739247,0.19999999,0.01150183,-0.12357537,0.08719542,-0.09310138,-0.04231516,0.98087507,-0.55850536,0.29229799,-0.02935652,0.00244212,0.07646007,
1998,0.24987930,-0.04943885,11.95404816,6.00000000,0.12890625,-0.17241211,-0.20614552,0.13041328,0.04056312,0.19999999,0.01150183,-0.19974056,0.06131120,-0.06889115,-0.04231516,1.54636168,-0.86393797,0.13035415,-0.02702192,0.00244212,0.09615152,
2006,0.13495761,0.04632922,14.08009911,6.00000000,0.10473633,-0.12568359,-0.17363712,-0.16389453,0.03230278,0.19999999,0.01150183,-0.10169592,0.00685329,-0.01049401,-0.04231516,1.64933610,-1.30201554,-0.16399923,-0.02578168,0.00244212,0.09444495,
2014,0.30734015,0.39588267,13.15354347,6.00000000,0.01772461,-0.02255859,-0.04200464,-0.36973676,-0.01352876,0.19999999,0.01150183,0.01381780,-0.03623093,0.03682698,-0.04231516,1.44338727,-1.49051118,-0.36967611,-0.02710517,0.00244212,0.07900646,
2021,0.39831981,0.67839849,10.48400879,5.00000000,-0.05639648,0.04995117,0.10867989,-0.35814568,-0.04204025,0.19999999,0.01150183,0.05519823,-0.04289952,0.04488464,-0.04231516,1.02625358,-1.21474910,-0.35814920,-0.03071649,0.00244212,0.05488094,
2030,-1.05256641,0.30011460,8.83919239,6.00000000,-0.06284180,0.07412110,0.08176719,-0.10500632,-0.10132816,0.19999999,0.01150183,-0.00310823,0.01072573,-0.01150643,-0.04231516,0.73478359,-0.72431165,-0.10503021,-0.02635150,0.00244212,0.04495999,
2038,-0.04700171,0.30969140,5.78897905,6.00000000,0.01127930,-0.01933594,0.05432155,0.08684666,-0.07827915,0.19999999,0.01150183,-0.10420857,0.04458656,-0.04894272,-0.04231516,0.66671580,-0.31066859,0.08676589,-0.02737159,0.00244212,0.04143316,
2046,0.82209349,-0.11168809,5.95417881,6.00000000,0.06606445,-0.08701172,0.03740118,0.24659093,-0.10665740,0.19999999,0.01150183,-0.09193147,0.07745468,-0.08220492,-0.04231516,0.71907568,-0.40491641,0.24659216,-0.02821453,0.00244212,0.05821838,
2054,-0.11643356,-0.02789103,8.25979519,6.00000000,0.12729493,-0.14663085,0.02847469,0.27976552,-0.17487180,0.19999999,0.01150183,-0.01021950,0.09142480,-0.09422089,-0.04231516,0.87790060,-0.84299403,0.27975339,-0.02665814,0.00244212,0.08209328,
2062,0.38395458,-0.22182137,11.67392731,6.00000000,0.13696289,-0.16435547,0.08656351,0.08364912,-0.07761300,0.19999999,0.01150183,0.02194376,0.05924869,-0.06049618,-0.04231516,1.22696650,-1.30201554,0.08357379,-0.02456768,0.00244212,0.09704984,
2070,1.48289323,-0.87543845,13.11763000,6.00000000,0.08378907,-0.11601563,-0.02881475,-0.15070465,0.00725531,0.19999999,0.01150183,-0.03218491,0.01406681,-0.01590386,-0.04231516,1.59174025,-1.48178458,-0.15070149,-0.02399109,0.00244212,0.09979694,
2078,0.56591392,-0.22182137,14.29078960,6.00000000,0.02416992,-0.04350586,-0.17323741,-0.33922687,0.05495209,0.19999999,0.01150183,-0.10264356,-0.02981083,0.02695460,-0.04231516,1.65457213,-1.30376089,-0.33914959,-0.02604817,0.00244212,0.08208115,
2086,0.05355476,0.26898998,11.38183403,6.00000000,-0.03222656,0.04189453,-0.13473359,-0.36560664,0.09119099,0.19999999,0.01150183,-0.13480920,-0.04270259,0.03929223,-0.04231516,1.32645023,-0.86568326,-0.36548147,-0.02762921,0.00244212,0.05260513,
2093,-0.32951751,0.44616091,8.88468170,5.00000000,-0.05961914,0.07250977,-0.06571980,-0.20093282,0.00805470,0.19999999,0.01150183,-0.05513552,-0.01005802,0.00824868,-0.04231516,0.87964594,-0.69115037,-0.20102753,-0.02688690,0.00244212,0.04207492,
2102,-0.06376112,0.36715224,5.25267792,6.00000000,-0.01450195,0.02255859,0.08190042,0.04607791,-0.08200962,0.19999999,0.00766789,0.04443350,0.03936213,-0.03928781,-0.04231516,0.49741885,-0.64926249,0.04587932,-0.02733341,0.00244212,0.04458127,
2110,0.13735183,-0.03986204,5.84883404,6.00000000,0.04511719,-0.05961914,0.16077331,0.22087730,-0.11678299,0.19999999,0.00766789,0.05762648,0.07791791,-0.07835318,-0.04231516,0.63006383,-0.82728606,0.22083688,-0.02715410,0.00244212,0.06836406,
2118,0.17087065,-0.04465045,7.45294905,6.00000000,0.11601563,-0.14340821,0.12786520,0.24166135,-0.14236338,0.19999999,0.01150183,0.02708232,0.08854838,-0.09026399,-0.04231516,1.03672564,-1.12922800,0.24157822,-0.02544831,0.00244212,0.09536568,
2126,0.58746171,-0.58574003,12.15276718,6.00000000,0.13374023,-0.17080078,0.01048847,0.05327240,-0.02631896,0.19999999,0.01150183,-0.01635889,0.05854431,-0.06090138,-0.04231516,1.48876595,-1.43291533,0.05323681,-0.02209031,0.00244212,0.10901589,
2134,1.41824973,-0.69347912,14.27881813,6.00000000,0.09667969,-0.11118164,-0.14459270,-0.17242134,0.05455240,0.19999999,0.01150183,-0.08633284,0.00830781,-0.01157846,-0.04231516,1.79943442,-1.50447381,-0.17241028,-0.02520603,0.00244212,0.10652477,
2142,0.69520080,-0.11647650,14.16389656,6.00000000,0.01289062,-0.02255859,-0.18562791,-0.37559900,0.10518028,0.19999999,0.01150183,-0.10935681,-0.03779494,0.03491556,-0.04231516,1.71216798,-1.33866751,-0.37552980,-0.02663821,0.00244212,0.08279357,
2150,-0.09488574,0.44855511,11.48239040,6.00000000,-0.04995117,0.05800781,-0.09476420,-0.39185315,0.11237477,0.19999999,0.00766789,-0.07971162,-0.04593366,0.04423671,-0.04231516,1.39626336,-1.12399209,-0.39190343,-0.02799040,0.00244212,0.06251292,
2158,-0.39416096,0.49883333,8.86792278,6.00000000,-0.06445312,0.07412110,-0.00056973,-0.25542438,-0.00540166,0.19999999,0.00766789,0.00258308,-0.02261504,0.02283460,-0.04231516,0.76619959,-0.77492619,-0.25549477,-0.02817987,0.00244212,0.03708640,
2165,0.00806493,0.55868840,6.42583656,5.00000000,-0.02739258,0.03222656,0.09762170,0.04527852,-0.10865588,0.19999999,0.00766789,0.07405908,0.03349495,-0.03240592,-0.04231516,0.21991149,-0.47298422,0.04511631,-0.02957734,0.00244212,0.02818674,
2174,-0.19783641,-0.31758943,5.94220781,6.00000000,0.06123047,-0.06284180,0.18915157,0.31347305,-0.08227608,0.19999999,0.01150183,0.05113355,0.09057646,-0.09148948,-0.04231516,0.14835298,-0.32288590,0.31350040,-0.02749620,0.00244212,0.03954493,
2182,0.19720685,-0.34153146,7.15606833,6.00000000,0.13374023,-0.16596679,0.10388357,0.34957868,-0.11198666,0.19999999,0.01150183,0.04033298,0.10515642,-0.10676304,-0.04231516,0.49916416,-0.63704520,0.34958476,-0.02533578,0.00244212,0.06607012,
2190,0.73350805,-0.87783265,9.62927818,6.00000000,0.15952149,-0.19335937,0.03407040,0.20142554,-0.02325465,0.19999999,0.01150183,0.05365253,0.08441436,-0.08526477,-0.04231516,0.90233523,-1.08559477,0.20145762,-0.02227299,0.00244212,0.08607128,
2198,0.64971095,-1.18668461,13.38338661,6.00000000,0.11923828,-0.15307617,-0.07624508,-0.05651015,0.11237477,0.19999999,0.01150183,-0.04546507,0.03591598,-0.03861730,-0.04231516,1.63362813,-1.47829378,-0.05649413,-0.02249022,0.00244212,0.10795815,
2206,0.70477760,-0.38702130,14.83666706,6.00000000,0.05639648,-0.08056641,-0.21014246,-0.34948564,0.15474230,0.19999999,0.01150183,-0.03938173,-0.02527864,0.02408575,-0.04231516,1.72263992,-1.58824956,-0.34940672,-0.02365912,0.00244212,0.09403936,
2214,-0.17628860,0.45334351,13.49112606,6.00000000,-0.02416992,0.03383789,-0.16337833,-0.44887614,0.19084796,0.19999999,0.01150183,-0.04895366,-0.05126965,0.05043956,-0.04231516,1.43466055,-1.26710904,-0.44879693,-0.02473057,0.00244212,0.06494734,
2222,0.01045913,0.69276369,10.29726124,6.00000000,-0.07250977,0.09023438,-0.04440281,-0.35961121,0.09105777,0.19999999,0.01150183,0.00971061,-0.04228602,0.04301915,-0.04231516,0.83601272,-0.86917394,-0.35958990,-0.02761193,0.00244212,0.03550508,
2230,-0.18825962,0.47010291,5.90150642,6.00000000,-0.06284180,0.08217774,0.07190807,-0.06450403,-0.04523780,0.19999999,0.01150183,0.14300248,0.01266739,-0.00927430,-0.04231516,0.13788101,-0.62657320,-0.06459776,-0.02922208,0.00244212,0.02286649,
2237,-0.72216660,0.11097267,5.60941410,5.00000000,0.01289062,-0.00483398,0.21339965,0.18144085,-0.06628834,0.19999999,0.01150183,0.13636477,0.06552155,-0.06347877,-0.04231516,0.10646509,-0.57246798,0.18133277,-0.02758090,0.00244212,0.03750366,
2246,1.10700345,-0.31758943,5.55434752,6.00000000,0.09184571,-0.10957031,0.19807807,0.24898909,-0.06748742,0.19999999,0.01150183,0.11962916,0.08691562,-0.08588622,-0.04231516,0.46949357,-0.87790060,0.24903814,-0.02520653,0.00244212,0.06643383,
2254,0.87476593,-1.03106153,8.72905922,6.00000000,0.12246094,-0.16274413,0.04472890,0.17984207,0.00445745,0.19999999,0.01150183,0.08432328,0.08054323,-0.08045221,-0.04231516,0.92851520,-1.21649444,0.17983398,-0.02277340,0.00244212,0.09017165,
2262,1.01841807,-0.81797761,13.48394299,6.00000000,0.11923828,-0.15629883,-0.13380095,-0.03013036,0.08919253,0.19999999,0.01150183,-0.09146055,0.03576497,-0.03974328,-0.04231516,1.57254159,-1.26012766,-0.03009649,-0.02464844,0.00244212,0.09980955,
2270,0.69041240,-0.23858078,14.55893993,6.00000000,0.06928711,-0.07412110,-0.18842578,-0.27181181,0.17552638,0.19999999,0.01150183,-0.09601870,-0.01648659,0.01352576,-0.04231516,1.63013756,-1.30201554,-0.27185857,-0.02641058,0.00244212,0.08598173,
2278,-0.08052053,0.64966804,13.30677223,6.00000000,-0.01611328,0.02094727,-0.15711641,-0.41130495,0.11130890,0.19999999,0.01150183,0.00311375,-0.04672734,0.04728688,-0.04231516,1.28281701,-1.29328895,-0.41110390,-0.02686467,0.00244212,0.06314354,
2286,0.19241846,0.85078096,9.90461159,6.00000000,-0.07573242,0.08217774,0.03033991,-0.35921156,0.06267951,0.19999999,0.01150183,0.08274189,-0.04444328,0.04729233,-0.04231516,0.73827428,-1.02101767,-0.35915416,-0.02997384,0.00244212,0.03747525,
2294,-0.33670011,-0.02789103,7.26859570,6.00000000,-0.07089844,0.08217774,0.10907959,-0.10047647,-0.02605250,0.19999999,0.01150183,0.07859763,-0.00072177,0.00255992,-0.04231516,0.35081118,-0.61959189,-0.10070920,-0.03328567,0.00244212,0.02769083,
2302,-0.14516398,0.38151747,5.73391247,6.00000000,-0.00966797,0.00000000,0.11960486,0.12828159,-0.08547363,0.19999999,0.01150183,0.01586867,0.04449756,-0.04539777,-0.04231516,0.22863814,-0.28274336,0.12827706,-0.03236210,0.00244212,0.02764645,
2309,0.30255175,-0.15717793,6.61737299,5.00000000,0.05639648,-0.08378907,0.08469827,0.27270427,-0.12411070,0.19999999,0.01150183,-0.01115631,0.07536505,-0.07771787,-0.04231516,0.28274336,-0.24434610,0.27271906,-0.03155296,0.00244212,0.03861542,
2318,-0.05179011,-0.29604164,9.04748726,6.00000000,0.10957031,-0.14179687,0.01488509,0.27057254,-0.13516888,0.19999999,0.01150183,-0.05973583,0.08476723,-0.08877943,-0.04231516,0.74001962,-0.53581607,0.27054062,-0.02756945,0.00244212,0.06541465,
2326,1.14770496,-0.40138650,11.76490688,6.00000000,0.13051757,-0.16274413,0.00262783,0.04367974,-0.05962677,0.19999999,0.01150183,-0.06589385,0.04706230,-0.05046050,-0.04231516,0.99832833,-0.77318084,0.04367682,-0.02336439,0.00244212,0.06691922,
2334,0.86997753,-0.52109659,13.66590309,6.00000000,0.08217774,-0.09184571,-0.07677799,-0.12592363,-0.04550426,0.19999999,0.01150183,-0.04749580,0.01188960,-0.01402879,-0.04231516,1.18158782,-1.01927233,-0.12593131,-0.02523105,0.00244212,0.07016292,
2342,-0.50668842,0.28814360,13.66590309,6.00000000,0.01933594,-0.02578125,-0.07344721,-0.31218088,0.05468563,0.19999999,0.01150183,-0.05720101,-0.02741310,0.02588309,-0.04231516,1.12573731,-0.93026048,-0.31210124,-0.02505820,0.00244212,0.05154614,
2350,-0.05897272,0.58741879,10.43373013,6.00000000,-0.04189453,0.04350586,-0.05199699,-0.34402317,0.06241304,0.19999999,0.01150183,-0.01530856,-0.03910882,0.03906637,-0.04231516,0.85172069,-0.79936081,-0.34397274,-0.02720404,0.00244212,0.03466880,
2358,0.02482434,0.25462475,8.16163254,6.00000000,-0.06284180,0.06606445,-0.02468458,-0.18827586,0.01684796,0.19999999,0.01150183,-0.03982218,-0.01446091,0.01323737,-0.04231516,0.57421333,-0.43807766,-0.18839367,-0.02944695,0.00244212,0.02287678,
2366,0.03440114,0.41503629,6.06910086,6.00000000,-0.02739258,0.01933594,0.02487744,0.06206566,-0.02658543,0.19999999,0.01150183,-0.03116062,0.03353408,-0.03552174,-0.04231516,0.28623399,-0.17976892,0.06195940,-0.02993145,0.00244212,0.02123737,
2374,-0.09249154,0.07505964,6.58385420,6.00000000,0.04350586,-0.06445312,0.08269981,0.23366749,-0.08920411,0.19999999,0.01150183,-0.01685043,0.07150631,-0.07393145,-0.04231516,0.27925268,-0.22165681,0.23364429,-0.02862801,0.00244212,0.03485836,
2381,0.13256341,-0.23139818,7.93657780,5.00000000,0.10957031,-0.14340821,0.04566152,0.24032906,-0.14636031,0.19999999,0.01150183,-0.03724321,0.07832305,-0.08152630,-0.04231516,0.56374133,-0.43633232,0.24041341,-0.02683868,0.00244212,0.05331014,
2390,0.96335143,-0.04943885,11.96601963,6.00000000,0.11923828,-0.15629883,0.02287897,0.08058479,-0.11251958,0.19999999,0.01150183,-0.06592862,0.05030705,-0.05375694,-0.04231516,0.88488197,-0.65973443,0.08055186,-0.02535453,0.00244212,0.06140693,
2398,1.36078894,-0.45405895,13.44324207,6.00000000,0.08540039,-0.10312500,-0.02788213,-0.10114262,-0.07135113,0.19999999,0.01150183,-0.05568957,0.00827384,-0.01050732,-0.04231516,0.88837260,-0.69813168,-0.10112561,-0.02848853,0.00244212,0.04983500,
2406,0.03440114,-0.09971709,13.57971096,6.00000000,0.01933594,-0.02416992,-0.07251461,-0.24623145,-0.02059002,0.19999999,0.01150183,-0.08377878,-0.02601927,0.02375591,-0.04231516,0.88837260,-0.60213858,-0.24618810,-0.03062638,0.00244212,0.03593613,
2414,-0.36064214,0.25941318,10.74497700,6.00000000,-0.03544922,0.04511719,-0.04093879,-0.28593433,0.04376067,0.19999999,0.01150183,-0.08426452,-0.03872460,0.03676758,-0.04231516,0.68765974,-0.39968041,-0.28587335,-0.03198512,0.00244212,0.01856422,
2422,0.18284166,0.29053780,7.64927387,6.00000000,-0.06284180,0.06767578,-0.04093879,-0.17815030,-0.04736950,0.19999999,0.01150183,-0.04495300,-0.02203156,0.02087208,-0.04231516,0.35604715,-0.20245820,-0.17822361,-0.03396125,0.00244212,0.00727467,
2430,-0.16910599,0.22589435,6.21275282,6.00000000,-0.03544922,0.04672851,0.04872584,0.06699521,-0.04577072,0.19999999,0.01150183,-0.02245564,0.02624766,-0.02780307,-0.04231516,0.13962634,-0.06283185,0.06688939,-0.03441941,0.00244212,0.01210395,
2438,-0.21459582,-0.23618658,6.59582520,6.00000000,0.03222656,-0.04189453,0.07457270,0.21887882,-0.09213520,0.19999999,0.01150183,0.01277964,0.06152262,-0.06286778,-0.04231516,0.13089970,-0.17453292,0.21888819,-0.03267347,0.00244212,0.02675715,
2446,0.34804156,-0.19069675,8.44414902,6.00000000,0.08378907,-0.10957031,0.06284834,0.21914530,-0.10159462,0.19999999,0.01150183,0.01118602,0.06713644,-0.06869788,-0.04231516,0.37699112,-0.41538835,0.21915476,-0.03091807,0.00244212,0.04430043,
2453,1.04714847,-0.21224457,11.13762569,5.00000000,0.09506836,-0.12729493,0.05312246,0.09524024,-0.02925005,0.19999999,0.01150183,0.02553852,0.04335190,-0.04401919,-0.04231516,0.55850536,-0.64577180,0.09526846,-0.03142634,0.00244212,0.05021220,
2462,0.99926442,-0.73418051,13.92208195,6.00000000,0.06928711,-0.08540039,-0.07544568,-0.10314108,0.04988930,0.19999999,0.01150183,-0.02193829,0.00117361,-0.00227802,-0.04231516,0.75398225,-0.67893308,-0.10318743,-0.03256949,0.00244212,0.04415476,
2470,0.20678367,-0.20506196,13.49830818,6.00000000,0.01127930,-0.01289062,-0.14126194,-0.27381030,0.09851871,0.19999999,0.01150183,-0.10669614,-0.03772855,0.03510219,-0.04231516,0.77492619,-0.41015238,-0.27372921,-0.03314909,0.00244212,0.02295448,
2478,-0.12361617,0.23068275,10.92932987,6.00000000,-0.04672851,0.05156250,-0.11914554,-0.26914719,0.09412208,0.19999999,0.00766789,-0.04337067,-0.04179051,0.04126027,-0.04231516,0.16231562,-0.01396263,-0.26901898,-0.03314582,0.00244212,-0.01302236,
2486,-0.91609693,0.61854345,7.71152306,6.00000000,-0.05800781,0.07412110,-0.00683160,-0.05491138,-0.04790242,0.19999999,0.00766789,0.03011940,-0.00163714,0.00234950,-0.04231516,-0.19547687,0.09250245,-0.05496016,-0.03476579,0.00244212,-0.01433097,
2494,-0.20980743,0.10857847,5.03480530,6.00000000,-0.00161133,0.00161133,0.14838281,0.11415908,-0.05229906,0.19999999,0.01150183,0.07710862,0.03513132,-0.03400971,-0.04231516,-0.26354474,0.00000000,0.11413268,-0.03412757,0.00244212,-0.00127092,
2502,0.97292823,-0.35350245,6.09543705,6.00000000,0.05478515,-0.06445312,0.13465999,0.21648067,-0.09773091,0.19999999,0.01150183,0.04286471,0.05747551,-0.05786882,-0.04231516,0.03490658,-0.18151423,0.21652967,-0.03493524,0.00244212,0.02338340,
2510,0.47972265,-0.11647650,9.76095963,6.00000000,0.08862305,-0.11279297,0.02607653,0.22740562,-0.06335725,0.19999999,0.01150183,0.00714991,0.06167191,-0.06318960,-0.04231516,0.18500490,-0.20943952,0.22739048,-0.03402075,0.00244212,0.03056923,
2518,0.39592561,-0.44687632,12.69864559,6.00000000,0.10473633,-0.11923828,-0.05985762,0.10230149,-0.02778451,0.19999999,0.01150183,-0.06230512,0.03938904,-0.04241342,-0.04231516,0.44854963,-0.23561946,0.10228907,-0.03212332,0.00244212,0.03199257,
2525,0.90349638,-0.54743278,13.51985645,5.00000000,0.06606445,-0.09023438,-0.09489745,-0.07915945,0.05601794,0.19999999,0.01150183,-0.09399279,-0.00036109,-0.00267504,-0.04231516,0.46076691,-0.13962634,-0.07917941,-0.03291195,0.00244212,0.01591258,
2534,0.20917787,0.05111762,12.91412354,6.00000000,0.00805664,-0.01289062,-0.12514095,-0.18454538,0.02337629,0.19999999,0.01150183,-0.05156053,-0.02447226,0.02321822,-0.04231516,0.16929694,0.00698132,-0.18447235,-0.03310728,0.00244212,-0.00743891,
2542,0.19481266,0.40306526,9.72744083,6.00000000,-0.03383789,0.03383789,0.01381925,-0.15403543,-0.01486108,0.19999999,0.01150183,-0.01225980,-0.02168000,0.02151998,-0.04231516,-0.10297443,0.14486232,-0.15400967,-0.03417931,0.00244212,-0.02001120,
2550,-0.47795802,0.06069443,6.71792936,6.00000000,-0.02900391,0.03706055,0.10321742,-0.00841368,-0.04150733,0.19999999,0.01150183,0.08069911,0.00639424,-0.00453319,-0.04231516,-0.27925268,0.00349066,-0.00846852,-0.03627023,0.00244212,-0.01078571,
2558,-0.31754652,0.05351182,6.38992357,6.00000000,0.01127930,-0.01127930,0.12333533,0.09150976,-0.07348283,0.19999999,0.01150183,0.05361524,0.02827525,-0.02769153,-0.04231516,-0.11344640,-0.06981317,0.09144118,-0.03617270,0.00244212,0.00501018,
2566,0.32409954,-0.79882395,8.01558685,6.00000000,0.04833984,-0.05156250,0.01235370,0.16478695,-0.03298052,0.19999999,0.01150183,-0.02660545,0.04471108,-0.04679393,-0.04231516,0.14660765,-0.05585054,0.16482759,-0.03557394,0.00244212,0.01915396,
2574,0.68083560,-0.04225624,10.37626934,6.00000000,0.07412110,-0.09506836,-0.07691123,0.12654957,-0.01192999,0.19999999,0.01150183,-0.02707004,0.03932696,-0.04130555,-0.04231516,0.16057029,-0.06806784,0.12654591,-0.03400681,0.00244212,0.01734245,
2582,0.49408787,-0.18111995,12.84469128,6.00000000,0.06445312,-0.08862305,-0.05213022,0.03661849,0.04336097,0.19999999,0.01150183,-0.05262329,0.02167381,-0.02398191,-0.04231516,0.17976892,0.00000000,0.03652563,-0.03292680,0.00244212,0.00910017,
2590,0.78378630,-0.40378070,12.77047157,6.00000000,0.04350586,-0.05317383,-0.07451308,-0.09208289,0.05108839,0.19999999,0.01150183,-0.00356601,-0.00886591,0.00864933,-0.04231516,-0.01919862,0.03141592,-0.09207501,-0.03503851,0.00244212,-0.00845250,
2597,0.42944443,0.28096098,11.02270412,5.00000000,-0.00322266,0.00805664,0.01701680,-0.13604921,0.02790615,0.19999999,0.01150183,0.00767016,-0.02015156,0.02051939,-0.04231516,-0.11868239,0.09250245,-0.13604143,-0.03594281,0.00244212,-0.01739721,
2606,0.01764173,0.02717561,8.50400352,6.00000000,-0.02416992,0.03222656,0.04672737,-0.08768626,0.00006082,0.19999999,0.01150183,0.07100649,-0.01089511,0.01287177,-0.04231516,-0.30368727,0.06108652,-0.08770065,-0.03643275,0.00244212,-0.01944640,
2614,-0.20023063,0.44376671,7.32126808,6.00000000,-0.01611328,0.02578125,0.04726029,-0.00788074,-0.03617807,0.19999999,0.01150183,0.04440358,0.00660214,-0.00578953,-0.04231516,-0.15184364,0.00000000,-0.00795259,-0.03637416,0.00244212,-0.00603634,
2622,0.17087065,-0.38223287,7.14888573,6.00000000,0.01127930,-0.01289062,0.02074727,0.09417439,-0.00193765,0.19999999,0.01150183,-0.01840718,0.02868505,-0.03017008,-0.04231516,0.08028515,-0.01745329,0.09417247,-0.03615202,0.00244212,0.01030169,
2630,-0.12840457,-0.32956046,9.59336567,6.00000000,0.04995117,-0.05639648,-0.06878412,0.10363381,0.00086021,0.19999999,0.01150183,-0.00970266,0.03367788,-0.03503487,-0.04231516,0.11344640,-0.08028515,0.10363819,-0.03462421,0.00244212,0.01443683,
2638,0.68322980,-0.01352582,11.76969528,6.00000000,0.05639648,-0.07250977,-0.03494339,0.02915754,0.03510064,0.19999999,0.01150183,-0.02810166,0.01593369,-0.01741290,-0.04231516,0.10471976,-0.00872665,0.02915514,-0.03565286,0.00244212,0.00618155,
2646,0.93222678,-0.21224457,12.43528271,6.00000000,0.03544922,-0.04350586,-0.04600158,-0.06370464,0.02537476,0.19999999,0.01150183,0.01021790,-0.00753443,0.00768276,-0.04231516,-0.06457718,0.02967060,-0.06369528,-0.03797113,0.00244212,-0.00797992,
2654,0.40310821,0.30969140,11.40817070,6.00000000,-0.00966797,0.00644531,0.03073962,-0.12818857,0.01911289,0.19999999,0.01150183,0.01532149,-0.02214224,0.02276879,-0.04231516,-0.12391838,0.07155850,-0.12817401,-0.03844279,0.00244212,-0.01626508,
2662,-0.07333793,-0.04465045,9.37070465,6.00000000,-0.02900391,0.03867187,0.03247162,-0.12978736,-0.00646751,0.19999999,0.01150183,0.02909675,-0.02374357,0.02480077,-0.04231516,-0.16929694,0.06981317,-0.12979048,-0.03923001,0.00244212,-0.01795123,
2669,-0.11882776,0.11815527,7.70673466,5.00000000,-0.03061523,0.04189453,0.00316074,-0.08648719,-0.02085648,0.19999999,0.01150183,0.04493362,-0.01800581,0.01938417,-0.04231516,-0.19373155,0.04014257,-0.08648154,-0.04151263,0.00244212,-0.01464864,
2678,0.07749677,-0.02310263,7.87911701,6.00000000,-0.02416992,0.03383789,0.02154665,0.01463533,-0.02511988,0.19999999,0.01150183,0.00256509,0.00308876,-0.00339885,-0.04231516,-0.03141592,0.02268928,0.01459167,-0.04171387,0.00244212,-0.00089826,
2686,0.60422117,-0.20266776,8.69793415,6.00000000,0.00161133,-0.00483398,-0.01935533,0.05513763,0.00525684,0.19999999,0.01150183,0.00612602,0.01107620,-0.01146970,-0.04231516,0.00000000,-0.02094395,0.05511709,-0.04230600,0.00244212,0.00472335,
2694,0.54676032,0.02238720,10.84792709,6.00000000,0.01933594,-0.02578125,-0.00962946,0.02889108,0.01458303,0.19999999,0.01150183,-0.00101371,0.00647062,-0.00696773,-0.04231516,0.02792527,-0.02443461,0.02888157,-0.04181911,0.00244212,0.00396435,
2702,0.56591392,-0.30561844,12.02348042,6.00000000,0.01450195,-0.01450195,-0.02188672,-0.03652547,0.03656618,0.19999999,0.01150183,0.01276437,-0.00724688,0.00745446,-0.04231516,-0.04363323,0.00000000,-0.03651842,-0.04168515,0.00244212,-0.00420029,
2710,0.60182697,-0.13084170,11.40338230,6.00000000,-0.00644531,0.00805664,-0.01469223,-0.14191139,0.06347889,0.19999999,0.01150183,0.00973528,-0.03010885,0.03074208,-0.04231516,-0.06632251,0.03316126,-0.14187971,-0.04211645,0.00244212,-0.01379824,
2718,0.42705023,-0.03267944,10.11290741,6.00000000,-0.03544922,0.05156250,-0.00962946,-0.16709210,0.04069635,0.19999999,0.01150183,0.03013542,-0.03789828,0.03930070,-0.04231516,-0.19198622,0.08901179,-0.16710152,-0.04327798,0.00244212,-0.02214657,
2726,0.05355476,0.17801031,8.90144157,6.00000000,-0.05478515,0.06767578,-0.00909653,-0.10727125,0.00259222,0.19999999,0.01150183,0.05313161,-0.02534203,0.02713909,-0.04231516,-0.32986721,0.14835298,-0.10731795,-0.04261322,0.00244212,-0.02494374,
2734,-0.42767978,-0.21463877,7.91742420,6.00000000,-0.03544922,0.04995117,0.04006580,0.01956489,0.00832116,0.19999999,0.01150183,0.01021773,0.00714796,-0.00729169,-0.04231516,-0.23561946,0.20071286,0.01951067,-0.03831050,0.00244212,-0.01430244,
2741,0.43183863,-0.39420390,7.89348221,5.00000000,0.00322266,-0.00805664,-0.01629101,0.03422033,-0.00393611,0.19999999,0.01150183,-0.02245690,0.01110661,-0.01229594,-0.04231516,-0.02792527,0.10471976,0.03426535,-0.03859655,0.00244212,-0.00230986,
2750,0.63295156,-0.12365910,9.25817776,6.00000000,0.01933594,-0.02416992,-0.00403374,0.02556030,-0.01566046,0.19999999,0.01150183,0.00561877,0.00886243,-0.00921990,-0.04231516,0.00000000,-0.01919862,0.02554933,-0.03973693,0.00244212,0.00253175,
2758,0.02482434,-0.42772272,12.64118385,6.00000000,0.01289062,-0.01611328,-0.01922211,-0.05304614,0.00086021,0.19999999,0.01150183,-0.03474262,-0.00797909,0.00683832,-0.04231516,0.11868239,0.00000000,-0.05301877,-0.04011618,0.00244212,0.00045401,
2766,0.69998920,0.00562779,12.18149757,6.00000000,-0.00483398,0.00805664,-0.02495104,-0.16829117,-0.01579370,0.19999999,0.01150183,-0.00408546,-0.03329317,0.03360599,-0.04231516,-0.04712389,0.06108652,-0.16827318,-0.04046049,0.00244212,-0.01601106,
2774,0.73829645,-0.35589665,10.57498837,6.00000000,-0.04833984,0.05961914,0.02860791,-0.22051783,-0.00393611,0.19999999,0.01150183,-0.01634822,-0.04832987,0.04863834,-0.04231516,-0.08726646,0.14311700,-0.22051944,-0.04262548,0.00244212,-0.02417111,
2782,0.06791997,-0.12844750,9.13128471,6.00000000,-0.07250977,0.08701172,-0.02068764,-0.17708443,-0.02112295,0.19999999,0.01150183,-0.00205281,-0.04056812,0.04112728,-0.04231516,-0.19722220,0.20420352,-0.17710558,-0.04289903,0.00244212,-0.02720281,
2790,-0.14276978,0.26898998,8.12572002,6.00000000,-0.06123047,0.07573242,0.02314544,-0.08768626,-0.06069263,0.19999999,0.01150183,-0.01891310,-0.02351560,0.02322064,-0.04231516,-0.18325958,0.24783675,-0.08769976,-0.04358627,0.00244212,-0.02183355,
2798,0.58027911,-0.44448212,7.35957527,6.00000000,-0.04028320,0.04672851,0.00302752,-0.00055303,-0.04150733,0.19999999,0.01150183,-0.00461894,-0.00748716,0.00724246,-0.04231516,-0.20769417,0.22340214,-0.00058156,-0.04504005,0.00244212,-0.01555999,
2806,0.30015755,0.02956981,9.16719723,6.00000000,-0.01772461,0.01611328,0.00955585,0.04820961,-0.03804331,0.19999999,0.01150183,-0.00358695,0.00436095,-0.00485665,-0.04231516,-0.11693706,0.12915437,0.04817296,-0.04462628,0.00244212,-0.00539116,
2813,0.47493425,-0.39659810,11.06340504,5.00000000,0.00322266,-0.00322266,0.01848234,-0.01147799,-0.02578604,0.19999999,0.01150183,-0.03573617,-0.00621744,0.00501631,-0.04231516,0.07504916,0.04712389,-0.01149381,-0.04422689,0.00244212,0.00017948,
2822,0.96813983,-0.46363574,12.01869202,6.00000000,-0.00805664,0.00805664,-0.04213788,-0.16216254,0.03003785,0.19999999,0.01150183,-0.00254561,-0.03753471,0.03797361,-0.04231516,0.00000000,0.00872665,-0.16216002,-0.04446338,0.00244212,-0.01198974,
2830,0.72393125,0.19955812,11.97080803,6.00000000,-0.05639648,0.06928711,-0.02388521,-0.23823757,0.04722468,0.19999999,0.01150183,0.00051185,-0.05754680,0.05853882,-0.04231516,-0.12740904,0.12566370,-0.23817387,-0.04633004,0.00244212,-0.02625956,
2838,0.23551409,-0.21942717,10.28289604,6.00000000,-0.08862305,0.10795899,-0.04173818,-0.23956989,0.02017874,0.19999999,0.01150183,0.00664897,-0.06132942,0.06260897,-0.04231516,-0.29146999,0.26878071,-0.23958735,-0.04747408,0.00244212,-0.03741936,
2846,-0.28402767,0.30011460,8.55907059,6.00000000,-0.09667969,0.11923828,-0.00469989,-0.14537540,-0.01339553,0.19999999,0.01150183,0.02758318,-0.03884302,0.04024649,-0.04231516,-0.46076691,0.36651915,-0.14540832,-0.04468454,0.00244212,-0.04025220,
2854,0.20917787,-0.11887070,7.29972029,6.00000000,-0.06928711,0.08378907,0.06724498,-0.01574139,-0.02791774,0.19999999,0.00766789,0.02759657,-0.01399838,0.01497295,-0.04231516,-0.52534413,0.43109635,-0.01578224,-0.04553155,0.00244212,-0.03556579,
2862,0.52760673,-0.32477203,7.37154627,6.00000000,-0.02578125,0.03706055,0.01608418,0.07565524,-0.02658543,0.19999999,0.00766789,0.03984208,0.00537760,-0.00450479,-0.04231516,-0.44331363,0.30717796,0.07567834,-0.04616655,0.00244212,-0.02156849,
2870,0.23072569,0.05111762,9.79687309,6.00000000,0.00322266,0.00161133,0.02794176,0.04501206,-0.01965740,0.19999999,0.01150183,0.03525543,0.00403945,-0.00342058,-0.04231516,-0.20420352,0.08377581,0.04499565,-0.04460668,0.00244212,-0.00712422,
2878,0.81491089,-0.54264438,11.64998436,6.00000000,0.00161133,-0.00161133,-0.01122823,-0.11060204,0.06414504,0.19999999,0.01150183,0.00205941,-0.02718656,0.02752673,-0.04231516,-0.00698132,0.00000000,-0.11059571,-0.04473157,0.00244212,-0.00821367,
2885,0.86758333,-0.11647650,13.33789730,5.00000000,-0.03706055,0.04995117,-0.12074430,-0.26341829,0.07880048,0.19999999,0.01150183,-0.00816632,-0.06152421,0.06233587,-0.04231516,0.00000000,0.02792527,-0.26337680,-0.04631186,0.00244212,-0.01996850,
2894,0.66647041,0.46770871,11.72899342,6.00000000,-0.09345703,0.11601563,-0.02934767,-0.33256531,0.08306389,0.19999999,0.01150183,0.00207825,-0.08144308,0.08302823,-0.04231516,-0.23387411,0.22689280,-0.33251780,-0.04838238,0.00244212,-0.04052819,
2902,-0.00869448,-0.18351415,9.79687309,6.00000000,-0.12246094,0.15146485,-0.01788978,-0.27940601,0.02803938,0.19999999,0.01150183,0.00153223,-0.07434443,0.07580262,-0.04231516,-0.46949357,0.46425760,-0.27941763,-0.04908809,0.00244212,-0.05373100,
2910,-0.00390608,0.67361009,7.49843884,6.00000000,-0.10634766,0.14018555,0.03513625,-0.10700479,-0.03804331,0.19999999,0.01150183,0.04955647,-0.04177027,0.04392919,-0.04231516,-0.84997535,0.68067843,-0.10707937,-0.04925911,0.00244212,-0.06281254,
2918,0.39113721,-0.25055179,6.95974350,6.00000000,-0.05800781,0.08056641,0.10881312,0.08844544,-0.07388252,0.19999999,0.01150183,0.06847108,-0.00523185,0.00716260,-0.04231516,-1.11002934,0.87615532,0.08840483,-0.05025126,0.00244212,-0.06513722,
2926,0.47254005,-0.27449381,7.79771423,6.00000000,-0.01450195,0.00966797,0.06324804,0.21568127,-0.05363137,0.19999999,0.01150183,0.02453182,0.02201575,-0.02194321,-0.04231516,-1.00007367,0.91629785,0.21561307,-0.04952697,0.00244212,-0.05346213,
2934,0.15650544,-0.28646481,9.74659443,6.00000000,0.02739258,-0.03706055,0.01088817,0.16984972,-0.00366965,0.19999999,0.01150183,-0.02300575,0.01992759,-0.02121579,-0.04231516,-0.62133718,0.69987702,0.16990659,-0.04657216,0.00244212,-0.03533100,
2942,1.26502085,-0.63122988,11.92771244,6.00000000,0.02094727,-0.03222656,-0.11448243,-0.06450403,0.05455240,0.19999999,0.01150183,-0.03422080,-0.03083651,0.03030056,-0.04231516,-0.33510324,0.45204026,-0.06449658,-0.04998757,0.00244212,-0.03298091,
2950,1.18840635,0.02956981,12.95482445,6.00000000,-0.04995117,0.05961914,-0.09929410,-0.26062042,0.09891841,0.19999999,0.01150183,-0.04649378,-0.07738425,0.07750195,-0.04231516,-0.17802358,0.33684853,-0.26064318,-0.05480009,0.00244212,-0.03729547,
2957,0.10622720,-0.02310263,12.85187435,5.00000000,-0.11762695,0.14340821,-0.07184845,-0.36920387,0.08546205,0.19999999,0.01150183,0.00305826,-0.10165306,0.10376048,-0.04231516,-0.49043754,0.47996554,-0.36905369,-0.05467370,0.00244212,-0.06151055,
2966,-0.24332625,0.41982469,10.72342873,6.00000000,-0.15468749,0.19335937,-0.00509958,-0.26701549,-0.02205556,0.19999999,0.01150183,0.01737424,-0.08687340,0.08913713,-0.04231516,-0.91280717,0.85346603,-0.26691830,-0.05588170,0.00244212,-0.08280630,
2974,0.81491089,0.23068275,7.12015533,6.00000000,-0.12729493,0.16113281,0.09242568,-0.06770158,-0.02072325,0.19999999,0.01150183,0.03832523,-0.05234960,0.05453466,-0.04231516,-1.41720724,1.28630757,-0.06780355,-0.05682757,0.00244212,-0.10221156,
2982,0.54676032,-0.05901565,6.45696115,6.00000000,-0.08056641,0.09990235,0.09442415,0.20342399,-0.07894530,0.19999999,0.01150183,0.05215429,-0.00161986,0.00313623,-0.04231516,-1.76278257,1.58475900,0.20337749,-0.05801267,0.00244212,-0.10587442,
2990,0.09904459,-0.29364741,6.89270592,6.00000000,-0.01289062,0.01772461,0.05192338,0.36196920,-0.09639860,0.19999999,0.01150183,0.03173638,0.03563951,-0.03554999,-0.04231516,-1.61268425,1.50447381,0.36205810,-0.05584988,0.00244212,-0.08615171,
2998,0.13735183,-0.51391399,9.01157475,6.00000000,0.05156250,-0.05639648,0.02940731,0.26058024,-0.03964209,0.19999999,0.01150183,0.01229180,0.02495528,-0.02524680,-0.04231516,-1.23394775,1.19205987,0.26066262,-0.05160860,0.00244212,-0.06857476,
3006,1.20995414,-0.65517187,11.92052937,6.00000000,0.04672851,-0.04833984,-0.02974737,0.05247301,0.04948962,0.19999999,0.01150183,0.00611462,-0.01507402,0.01542675,-0.04231516,-0.88139129,0.86044729,0.05239348,-0.05217663,0.00244212,-0.05893340,
3014,1.03996587,-0.69347912,14.27642441,6.00000000,-0.01772461,0.01933594,-0.15778258,-0.16575977,0.09159069,0.19999999,0.01150183,-0.04902644,-0.05925336,0.05899541,-0.04231516,-0.66846108,0.83601272,-0.16577306,-0.05192029,0.00244212,-0.06609891,
3022,0.60182697,0.24983637,13.04101563,6.00000000,-0.08378907,0.10312500,-0.14592499,-0.30765104,0.12649727,0.19999999,0.01150183,-0.07571774,-0.09435434,0.09417485,-0.04231516,-0.92851520,1.18682384,-0.30744013,-0.05305540,0.00244212,-0.09829434,
3029,-0.06136692,0.61136085,10.74258232,5.00000000,-0.14179687,0.17402343,-0.07278106,-0.24050249,0.04682498,0.19999999,0.01150183,-0.03929856,-0.08592976,0.08665509,-0.04231516,-1.28630757,1.42069805,-0.24044776,-0.05466058,0.00244212,-0.11476114,
3038,0.03440114,0.42940149,6.86397552,6.00000000,-0.12890625,0.16113281,0.03979934,-0.02080418,-0.06162524,0.19999999,0.01150183,0.05818241,-0.04494909,0.04760719,-0.04231516,-1.82212377,1.62315619,-0.02093486,-0.05563721,0.00244212,-0.12553503,
3046,0.22354308,0.14449149,6.49766254,6.00000000,-0.07089844,0.08540039,0.15464467,0.18210700,-0.11198666,0.19999999,0.01150183,0.08270186,-0.00460329,0.00710374,-0.04231516,-2.06646991,1.78372645,0.18215451,-0.05541923,0.00244212,-0.12549107,
3054,0.73350805,-0.34631985,6.72271776,6.00000000,-0.01772461,0.01772461,0.13372737,0.35250980,-0.12331132,0.19999999,0.01150183,0.04846388,0.03140359,-0.03068669,-0.04231516,-1.93906081,1.77325451,0.35256672,-0.05517517,0.00244212,-0.10825542,
3062,-0.14037558,-0.39180970,9.18395710,6.00000000,0.04350586,-0.04511719,0.03433686,0.29482067,-0.08733887,0.19999999,0.01150183,0.00100283,0.02963509,-0.03029719,-0.04231516,-1.48876595,1.48527515,0.29485744,-0.05094367,0.00244212,-0.08583117,
3070,0.81251669,-0.48518357,11.46802521,6.00000000,0.04995117,-0.05639648,-0.04280402,0.07192477,0.05868257,0.19999999,0.01150183,-0.00458585,-0.01034905,0.01035431,-0.04231516,-1.16937065,1.18507862,0.07184735,-0.04923887,0.00244212,-0.07958347,
3078,1.03996587,-0.75093997,14.27163601,6.00000000,-0.00966797,0.00805664,-0.15192041,-0.15350249,0.10797814,0.19999999,0.01150183,-0.03121041,-0.05451731,0.05471751,-0.04231516,-0.98262036,1.08908546,-0.15350738,-0.04844506,0.00244212,-0.08563049,
3086,0.40789661,0.00802199,13.41930008,6.00000000,-0.08378907,0.09184571,-0.15098780,-0.28739989,0.15074536,0.19999999,0.01150183,-0.09759152,-0.08724058,0.08632185,-0.04231516,-1.08559477,1.41895270,-0.28722638,-0.04942307,0.00244212,-0.11085048,
3094,0.07031417,0.77416652,10.35232735,6.00000000,-0.13857421,0.16274413,-0.09276575,-0.26701549,0.06054781,0.19999999,0.01150183,-0.03984874,-0.08705505,0.08782176,-0.04231516,-1.43989658,1.57603240,-0.26700917,-0.05059114,0.00244212,-0.12779696,
3101,-0.02305970,0.67839849,7.42900705,5.00000000,-0.12729493,0.16274413,0.02714238,-0.09847799,-0.07854562,0.19999999,0.01150183,0.04955263,-0.05401558,0.05665089,-0.04231516,-1.90415418,1.73485732,-0.09851986,-0.05022148,0.00244212,-0.13809858,
3110,-0.12601037,0.11097267,6.37316418,6.00000000,-0.08217774,0.10312500,0.17516229,0.16292170,-0.10852264,0.19999999,0.01150183,0.06542022,-0.00562893,0.00768892,-0.04231516,-2.17118955,1.94778740,0.16276512,-0.05225630,0.00244212,-0.13656129,
3118,0.53478932,-0.38462707,6.62694979,6.00000000,-0.01450195,0.02416992,0.12480088,0.30188191,-0.14489476,0.19999999,0.01150183,0.05158562,0.02572288,-0.02477609,-0.04231516,-2.01411009,1.83783174,0.30190802,-0.05151336,0.00244212,-0.11693141,
3126,0.30255175,-0.37505028,8.18318081,6.00000000,0.04189453,-0.04511719,0.05525416,0.27043933,-0.09506628,0.19999999,0.01150183,0.01227371,0.02461783,-0.02479766,-0.04231516,-1.76452780,1.72263992,0.27052501,-0.04903691,0.00244212,-0.10605795,
3134,0.24269669,-0.68629652,12.57893467,6.00000000,0.03222656,-0.04995117,-0.04227111,0.10310088,0.04429359,0.19999999,0.01150183,-0.08334140,-0.00251782,0.00014103,-0.04231516,-1.17460668,1.45909524,0.10301143,-0.04651647,0.00244212,-0.08739506,
3142,1.32966423,-0.26252279,13.38817501,6.00000000,0.00000000,0.00000000,-0.18562791,-0.14524217,0.08879283,0.19999999,0.01150183,-0.10216102,-0.05507497,0.05330419,-0.04231516,-1.02450824,1.37357402,-0.14523676,-0.04799570,0.00244212,-0.09679392,
3150,0.56351972,0.04154082,13.30198383,6.00000000,-0.08378907,0.10473633,-0.15085456,-0.31684399,0.08985868,0.19999999,0.01150183,-0.06995847,-0.09188406,0.09185000,-0.04231516,-1.11526537,1.35437548,-0.31674081,-0.04885599,0.00244212,-0.11171541,
3158,0.52760673,0.10857847,10.91257095,6.00000000,-0.13212891,0.16596679,-0.02521750,-0.34508899,0.06614352,0.19999999,0.01150183,-0.03059853,-0.10435678,0.10577402,-0.04231516,-1.48003924,1.58475900,-0.34504774,-0.05122912,0.00244212,-0.13518195,
3166,-0.01108869,0.43179569,8.39387035,6.00000000,-0.15468749,0.18691406,0.04486213,-0.11113496,-0.08640625,0.19999999,0.01150183,0.03675986,-0.06529526,0.06786905,-0.04231516,-2.15722704,2.03156328,-0.11129661,-0.05360783,0.00244212,-0.15880673,
3173,-0.40134355,0.30250880,6.65089178,5.00000000,-0.10634766,0.13374023,0.12413472,0.15892476,-0.10785648,0.19999999,0.01150183,0.03577068,-0.00921851,0.01056990,-0.04231516,-2.39633703,2.27416396,0.15888023,-0.05165369,0.00244212,-0.15669872,
3182,0.59225017,-0.27209961,5.91108322,6.00000000,-0.01289062,0.01933594,0.12480088,0.28602737,-0.11798206,0.19999999,0.01150183,0.03777432,0.01846129,-0.01767826,-0.04231516,-2.33699584,2.20784140,0.28603536,-0.05128649,0.00244212,-0.14301647,
3190,0.46775165,-0.52109659,8.37950516,6.00000000,0.01933594,-0.02578125,0.04459566,0.29348832,-0.08587333,0.19999999,0.01150183,0.00307297,0.02543744,-0.02583375,-0.04231516,-2.07170582,2.06123376,0.29345945,-0.04900829,0.00244212,-0.12765938,
3198,0.76702684,-0.67671967,10.90059948,6.00000000,0.03867187,-0.04511719,-0.05492806,0.14333671,-0.00686720,0.19999999,0.01150183,-0.04954364,0.00194025,-0.00339429,-0.04231516,-1.54810703,1.71740401,0.14339599,-0.04692887,0.00244212,-0.10723674,
3206,0.92743838,-0.61447042,13.78082466,6.00000000,0.00644531,-0.00805664,-0.12940434,-0.10647187,0.06667645,0.19999999,0.01150183,-0.06488648,-0.04827433,0.04744951,-0.04231516,-1.28107166,1.50272846,-0.10647662,-0.04764698,0.00244212,-0.10788798,
3214,0.87716013,0.14927989,13.48873138,6.00000000,-0.06767578,0.08378907,-0.12101077,-0.30964950,0.09958457,0.19999999,0.00766789,-0.04081835,-0.09379325,0.09478673,-0.04231516,-1.41546202,1.55508828,-0.30959305,-0.04943172,0.00244212,-0.12923402,
3222,0.17326485,0.56826520,11.54463959,6.00000000,-0.14663085,0.18046875,-0.07104906,-0.30911660,0.05228747,0.19999999,0.00766789,0.00662683,-0.09823816,0.10073917,-0.04231516,-1.81339717,1.79070783,-0.30905429,-0.05038972,0.00244212,-0.15200098,
3230,-0.35824794,-0.01352582,8.22867012,6.00000000,-0.14340821,0.18208008,0.00569215,-0.15110435,-0.00406935,0.19999999,0.00766789,0.02146120,-0.07185902,0.07427535,-0.04231516,-2.24274802,2.16944432,-0.15112416,-0.05152762,0.00244212,-0.16972409,
3238,-0.15474080,0.69515789,7.02199316,6.00000000,-0.11601563,0.13857421,0.08802905,0.10070272,-0.06189170,0.19999999,0.00766789,0.01232867,-0.02483758,0.02601479,-0.04231516,-2.54643536,2.50454736,0.10063142,-0.05231269,0.00244212,-0.17458975,
3245,0.57788491,-0.08056347,5.53519344,5.00000000,-0.03706055,0.05639648,0.13013013,0.29735205,-0.09679830,0.19999999,0.00766789,0.06946193,0.01540801,-0.01349289,-0.04231516,-2.67908049,2.44171548,0.29734200,-0.05290544,0.00244212,-0.16293739,
3254,0.41268501,-0.66953707,8.12572002,6.00000000,0.01289062,-0.02416992,0.04486213,0.28975785,-0.08360840,0.19999999,0.00766789,0.04395589,0.01890110,-0.01781918,-0.04231516,-2.46964097,2.31954241,0.28987098,-0.05066150,0.00244212,-0.15153529,
3262,0.49887627,-0.24097499,10.77610111,6.00000000,0.02255859,-0.02416992,0.01195402,0.20315753,-0.01499431,0.19999999,0.00766789,0.00359281,0.00975456,-0.00970889,-0.04231516,-1.92160749,1.90939021,0.20324624,-0.04825885,0.00244212,-0.12328281,
3270,0.78857470,-0.76051676,13.46718407,6.00000000,0.01772461,-0.01772461,-0.06438750,-0.08821918,0.04642529,0.19999999,0.00766789,-0.02653724,-0.04715371,0.04755352,-0.04231516,-1.60919356,1.69995070,-0.08830579,-0.04772604,0.00244212,-0.12548989,
3278,1.31290483,-0.28407061,13.40254021,6.00000000,-0.06606445,0.08217774,-0.13486680,-0.28726664,0.13049421,0.19999999,0.00766789,-0.06281643,-0.09085646,0.09121180,-0.04231516,-1.64060950,1.85528505,-0.28727072,-0.04828571,0.00244212,-0.14653558,
3286,0.03679535,0.74543613,12.55499268,6.00000000,-0.14340821,0.17241211,-0.11874583,-0.29219621,0.09518793,0.19999999,0.00766789,-0.06587929,-0.09499766,0.09540641,-0.04231516,-1.88495564,2.11010313,-0.29219952,-0.04835436,0.00244212,-0.16486603,
3294,0.04158375,0.21871173,7.93897200,6.00000000,-0.13212891,0.17080078,-0.02761567,-0.15483482,0.00245899,0.19999999,0.00766789,0.01735879,-0.07080188,0.07313125,-0.04231516,-2.49931145,2.43997025,-0.15490873,-0.04823524,0.00244212,-0.18896493,
3302,-0.59287971,0.27377838,7.23507690,6.00000000,-0.11279297,0.14340821,0.08749612,0.07525554,-0.06069263,0.19999999,0.00766789,0.01885320,-0.02317168,0.02452670,-0.04231516,-2.69478822,2.63021111,0.07524076,-0.04677868,0.00244212,-0.18628508,
3310,0.77181524,0.11576107,5.46815586,6.00000000,-0.03383789,0.04672851,0.14465234,0.24872261,-0.08480748,0.19999999,0.00766789,0.07597722,0.01419862,-0.01204861,-0.04231516,-2.79252672,2.53247285,0.24871367,-0.04637608,0.00244212,-0.17378637,
3317,0.19002426,-0.49715456,7.78334904,5.00000000,0.00805664,-0.01127930,0.08976106,0.28069812,-0.11744913,0.19999999,0.00766789,0.07773945,0.02581560,-0.02389959,-0.04231516,-2.65290046,2.38761044,0.28078333,-0.04424665,0.00244212,-0.16124378,
3326,0.58746171,-0.56419224,10.09135914,6.00000000,0.03706055,-0.04189453,0.02980699,0.17464605,0.01991228,0.19999999,0.00766789,0.00712370,0.01140402,-0.01126604,-0.04231516,-2.05948853,2.03505397,0.17464063,-0.04231330,0.00244212,-0.13482873,
3334,0.84842974,-0.59531683,13.76645947,6.00000000,0.01450195,-0.02739258,-0.09876116,-0.09674598,0.11277446,0.19999999,0.00766789,-0.01733821,-0.04178388,0.04235391,-0.04231516,-1.75405586,1.81339717,-0.09675981,-0.04215110,0.00244212,-0.13539405,
3342,1.15967596,-0.27449381,13.94841862,6.00000000,-0.06445312,0.07412110,-0.18656054,-0.28540143,0.14022009,0.19999999,0.00766789,-0.08843582,-0.08404453,0.08353546,-0.04231516,-1.65806282,1.96000481,-0.28535500,-0.04337730,0.00244212,-0.15078586,
3350,0.28339812,0.16364510,11.79124260,6.00000000,-0.12084961,0.15468749,-0.13180250,-0.35055152,0.14608227,0.19999999,0.00766789,-0.00311634,-0.10294499,0.10532597,-0.04231516,-2.05425239,2.06472445,-0.35043734,-0.04576703,0.00244212,-0.17351954,
3358,-0.57133186,0.58981299,9.57900047,6.00000000,-0.14824219,0.18530273,0.00995554,-0.22118397,-0.00140472,0.19999999,0.00766789,0.05670508,-0.07949771,0.08314312,-0.04231516,-2.58832335,2.39459157,-0.22117803,-0.04514284,0.00244212,-0.19530684,
3366,0.29058072,0.40545946,6.51442194,6.00000000,-0.12407227,0.16274413,0.12759873,0.02209628,-0.05922708,0.19999999,0.00766789,0.04952310,-0.03667449,0.03924233,-0.04231516,-2.96531439,2.79601741,0.02191052,-0.04697246,0.00244212,-0.20583680,
3374,0.59943277,0.25462475,5.67645168,6.00000000,-0.06123047,0.06928711,0.15690960,0.23753120,-0.09306782,0.19999999,0.01150183,0.09286540,0.00273666,0.00010129,-0.04231516,-3.15381002,2.83615994,0.23752427,-0.04988893,0.00244212,-0.19853757,
3382,0.28579232,-0.74375737,7.48167944,6.00000000,0.00000000,0.01289062,0.10175187,0.32732907,-0.08947058,0.19999999,0.01150183,0.05107524,0.02597506,-0.02487864,-0.04231516,-2.87455726,2.70002437,0.32727730,-0.04807706,0.00244212,-0.17712179,
3389,0.54436612,-0.61925888,9.79687309,5.00000000,0.03061523,-0.04350586,-0.00656512,0.20835356,-0.04870181,0.19999999,0.01150183,0.00608762,0.00723333,-0.00704169,-0.04231516,-2.57610607,2.55516195,0.20829365,-0.04551947,0.00244212,-0.16972674,
3398,1.05911946,-0.62165308,12.69146252,6.00000000,0.00644531,-0.00644531,-0.08303986,0.01223717,0.07893373,0.19999999,0.01150183,-0.06542264,-0.03740443,0.03660480,-0.04231516,-2.07170582,2.29510808,0.01222266,-0.04543866,0.04884005,-0.15632761,
3406,1.46613371,-0.33913726,13.49351978,6.00000000,-0.05156250,0.05961914,-0.16924047,-0.21438919,0.06960753,0.19999999,0.01150183,-0.09394334,-0.08540505,0.08486810,-0.04231516,-2.07170582,2.39284658,-0.21431580,-0.04549246,0.04884005,-0.17615452,
3414,0.42465603,0.07027124,13.00989151,6.00000000,-0.13696289,0.15468749,-0.11781321,-0.26475057,0.08839314,0.19999999,0.01150183,-0.05982145,-0.11640963,0.11783836,-0.04231516,-2.49931145,2.70351481,-0.26469064,-0.04688631,0.13675213,-0.20635974,
3422,-0.31036389,0.30250880,9.36831093,6.00000000,-0.16435547,0.20947266,0.00316074,-0.11606453,-0.02365434,0.19999999,0.01150183,-0.04343988,-0.09503715,0.09654531,-0.04231516,-2.98276758,3.13112068,-0.11606401,-0.04965255,0.13675213,-0.22845006,
3430,-0.52344787,0.52038115,7.98206758,6.00000000,-0.15307617,0.18369141,0.05791879,0.07951894,-0.11371866,0.19999999,0.01150183,-0.04955541,-0.07186316,0.07294636,-0.04231516,-3.46971464,3.63901138,0.07951406,-0.05046449,0.19780231,-0.25018752,
3438,0.85800654,0.25941318,5.12578535,6.00000000,-0.10634766,0.12890625,0.13426030,0.37848985,-0.13077226,0.19999999,0.01150183,0.01481481,-0.01518378,0.01691535,-0.04231516,-3.96887851,3.91826415,0.37852469,-0.05147838,0.19780231,-0.25668627,
3446,-0.38697836,-0.38941550,8.28613186,6.00000000,-0.02416992,0.03222656,0.12093717,0.51784974,-0.14009845,0.19999999,0.01150183,-0.02553855,0.00803843,-0.00771867,-0.04231516,-3.80307245,3.89033890,0.51791358,-0.04499455,0.29548240,-0.23966943,
3454,1.41106713,-0.85628480,8.48724461,6.00000000,0.00000000,-0.00161133,-0.01602454,0.47867978,-0.13863289,0.19999999,0.01150183,-0.02706874,-0.00293546,0.00343367,-0.04231516,-3.69835258,3.79085517,0.47877961,-0.04764856,0.29548240,-0.23514362,
3461,0.59225017,-0.26491702,11.99235535,5.00000000,-0.00483398,0.00000000,-0.01868917,0.36143628,-0.05176613,0.19999999,0.01150183,-0.07661948,-0.02037805,0.01982398,-0.04231516,-3.44527984,3.70707917,0.36134604,-0.04399503,0.29548240,-0.23146534,
3470,0.82688189,-0.34871405,13.51267338,6.00000000,-0.02739258,0.03222656,-0.12074430,0.19676243,-0.01059768,0.19999999,0.01533577,-0.11081775,-0.06033896,0.05972797,-0.04231516,-3.27598286,3.65471935,0.19668964,-0.04199263,0.35409045,-0.23534533,
3478,0.51563567,-0.06619826,13.02904510,6.00000000,-0.09023438,0.11923828,-0.11008582,0.02049751,-0.00833275,0.19999999,0.01533577,-0.10981363,-0.09837165,0.09869507,-0.04231516,-3.59886885,3.97411466,0.02039681,-0.04049154,0.35409045,-0.27116156,
3486,0.00567073,0.12054947,10.30444336,6.00000000,-0.13696289,0.17724609,-0.02908121,0.10723104,-0.03258083,0.19999999,0.01533577,-0.11292242,-0.08869653,0.08893318,-0.04231516,-3.94618964,4.33190727,0.10723789,-0.03734931,0.40781450,-0.29028937,
3494,-0.55217826,0.67839849,7.95333719,6.00000000,-0.13212891,0.16274413,0.00502599,0.29615298,-0.11211988,0.19999999,0.01533577,-0.07969441,-0.04812482,0.04847231,-0.04231516,-4.33190727,4.60417843,0.29614812,-0.03415963,0.40781450,-0.30037776,
3502,-0.14755818,0.24983637,6.22711802,6.00000000,-0.08056641,0.09345703,0.08349919,0.50679153,-0.13436949,0.19999999,0.01533577,-0.02043056,-0.01696986,0.01861214,-0.04231516,-4.64781141,4.71762466,0.50689161,-0.03092461,0.50305247,-0.30065757,
3510,0.43423283,-0.21703297,6.31570339,6.00000000,-0.03867187,0.04028320,0.08283304,0.63429385,-0.16048282,0.19999999,0.01533577,-0.01172504,0.01615150,-0.01500486,-0.04231516,-4.60592365,4.64606667,0.63456094,-0.02708327,0.50305247,-0.28738618,
3518,0.49648207,-0.50194299,9.18395710,6.00000000,0.01611328,-0.01127930,0.01608418,0.63535976,-0.13450274,0.19999999,0.01533577,0.02392754,0.02116501,-0.01906054,-0.04231516,-4.39997530,4.31794453,0.63543135,-0.02211215,0.54212451,-0.26808977,
3526,1.43740332,-0.33195466,11.33395004,6.00000000,0.03383789,-0.03544922,-0.00603220,0.47947919,-0.06055940,0.19999999,0.01533577,-0.08739479,0.00235955,-0.00304699,-0.04231516,-3.95317078,4.25162220,0.47929394,-0.01421451,0.54212451,-0.26086196,
3533,0.53478932,-0.72460371,13.57252884,5.00000000,-0.00161133,-0.01772461,-0.08903527,0.31973490,0.04229512,0.19999999,0.01533577,-0.10627603,-0.02218546,0.02145283,-0.04231516,-3.64250207,4.00553083,0.31950313,-0.01060840,0.54212451,-0.25233129,
3542,0.09186199,0.45094931,13.44563580,6.00000000,-0.03867187,0.04672851,-0.11368304,0.08364912,0.06680968,0.19999999,0.01150183,-0.07051861,-0.06735957,0.06876662,-0.04231516,-3.73675013,3.97760534,0.08355893,-0.00803462,0.54456663,-0.27170873,
3550,0.89152533,0.29293200,10.02192783,6.00000000,-0.09023438,0.12890625,-0.01962179,0.03768434,0.02697353,0.19999999,0.01150183,-0.06437171,-0.07445443,0.07623732,-0.04231516,-3.96538806,4.18529940,0.03770385,-0.00482283,0.54456663,-0.29071200,
3558,-0.71258980,0.25701898,9.06903553,6.00000000,-0.11118164,0.13857421,0.02461098,0.19742858,-0.04643688,0.19999999,0.01150183,-0.03422663,-0.04452505,0.04654465,-0.04231516,-4.17308235,4.29001951,0.19743000,-0.00542708,0.54945064,-0.29045683,
3566,0.16368803,0.40067106,5.79855585,6.00000000,-0.07895508,0.07895508,0.12133686,0.37968895,-0.09813061,0.19999999,0.01150183,0.00050746,-0.00579575,0.00797367,-0.04231516,-4.38077641,4.37903118,0.37974924,-0.00396940,0.54945064,-0.28801104,
3574,-0.08770314,-0.58813423,6.80890894,6.00000000,-0.02094727,0.02578125,0.12160333,0.52304578,-0.09892999,0.19999999,0.01150183,0.05617300,0.03207149,-0.02918930,-0.04231516,-4.27256584,4.08057976,0.52322906,-0.00074695,0.54945064,-0.26304075,
3582,0.91307318,-0.83234280,8.27176666,6.00000000,0.05156250,-0.04511719,0.03846703,0.50266135,-0.12317808,0.19999999,0.01150183,-0.04139416,0.02818251,-0.02804285,-0.04231516,-3.81528974,3.95666146,0.50263524,-0.00184977,0.54945064,-0.24359870,
3590,0.23072569,-0.38702130,10.97003174,6.00000000,0.03706055,-0.05800781,-0.00096942,0.37329385,0.00685562,0.19999999,0.01150183,-0.04849117,0.01103865,-0.01079482,-0.04231516,-3.41560936,3.58141565,0.37324697,0.00151722,0.54945064,-0.22501311,
3598,0.18044744,-0.28885901,13.92447662,6.00000000,0.01611328,-0.01933594,-0.13020372,0.14506872,0.05761673,0.19999999,0.01150183,-0.05670907,-0.03017158,0.03105413,-0.04231516,-3.18697143,3.38070273,0.14496769,0.00389961,0.54945064,-0.22600043,
3605,0.56591392,-0.30083004,13.07692909,5.00000000,-0.03706055,0.05317383,-0.14432624,-0.05730954,0.09358916,0.19999999,0.01150183,-0.06999730,-0.07177245,0.07320064,-0.04231516,-3.17126322,3.41037321,-0.05731373,0.00427638,0.54945064,-0.24106577,
3614,0.18284166,-0.01592002,11.25015354,6.00000000,-0.10473633,0.12246094,-0.05825885,-0.09194967,0.08959221,0.19999999,0.00766789,0.01684294,-0.08047605,0.08471633,-0.04231516,-3.61108613,3.55349040,-0.09184947,0.00415641,0.54456663,-0.26454192,
3622,-0.73413759,0.32405663,8.98044968,6.00000000,-0.11279297,0.16596679,-0.00909653,0.08857867,-0.02831743,0.19999999,0.00766789,0.06078841,-0.04866286,0.05348917,-0.04231516,-3.90953755,3.70184350,0.08857606,0.00184571,0.54456663,-0.26763055,
3630,0.49408787,0.51798695,5.65011549,6.00000000,-0.07412110,0.09990235,0.13559261,0.25378540,-0.07401575,0.19999999,0.00766789,0.01480760,-0.01202350,0.01470085,-0.04231516,-4.11025047,4.05963612,0.25378168,0.00259703,0.51282048,-0.27584213,
3638,0.05594896,-0.26252279,5.79137325,6.00000000,-0.02578125,0.02578125,0.12160333,0.49759862,-0.05829446,0.19999999,0.00766789,0.08985707,0.04423948,-0.04070760,-0.04231516,-4.07534361,3.76816583,0.49763310,0.00438332,0.51282048,-0.24653566,
3646,-0.04221331,-0.48518357,8.13529682,6.00000000,0.06284180,-0.06606445,0.05845172,0.48627397,-0.07947823,0.19999999,0.00766789,0.08113094,0.05161787,-0.04855414,-0.04231516,-3.75943899,3.48193192,0.48627523,0.00848420,0.51282048,-0.22566982,
3654,1.03757167,-0.60249943,9.84475708,6.00000000,0.07734375,-0.08862305,0.03780088,0.31467208,0.01271779,0.19999999,0.00766789,-0.00459838,0.02166516,-0.02046709,-0.04231516,-3.12937546,3.14508319,0.31462121,0.00919032,0.51282048,-0.20322710,
3662,0.19002426,-0.98796594,14.64513111,6.00000000,0.02578125,-0.03544922,-0.12460802,0.09577316,0.08319712,0.19999999,0.00766789,0.00299896,-0.00746261,0.00932658,-0.04231516,-2.71224165,2.70176983,0.09570014,0.01189252,0.47130656,-0.18801510,
3670,0.64971095,0.16364510,14.37458611,6.00000000,-0.00644531,0.01450195,-0.14072901,-0.17322072,0.15847278,0.19999999,0.00766789,-0.05728338,-0.06511533,0.06653123,-0.04231516,-2.54643536,2.74191236,-0.17315629,0.01068683,0.47130656,-0.20284155,
3677,0.49408787,0.13252048,11.84630966,5.00000000,-0.09345703,0.11923828,-0.08517155,-0.26195273,0.12942837,0.19999999,0.00766789,0.00870746,-0.08638714,0.09018214,-0.04231516,-2.83266950,2.80299878,-0.26184446,0.00952630,0.47130656,-0.22173773,
3686,-0.16192339,0.52516955,9.89264107,6.00000000,-0.12568359,0.16596679,0.00489276,-0.14324370,0.05961518,0.19999999,0.00766789,0.00920369,-0.06737560,0.07081302,-0.04231516,-3.15904593,3.12763000,-0.14321952,0.00788928,0.46642256,-0.23662947,
3694,-0.08291474,0.47967973,6.37316418,6.00000000,-0.10795899,0.12729493,0.08563089,0.12188649,-0.02365434,0.19999999,0.00766789,0.08734343,-0.01621374,0.02078920,-0.04231516,-3.56047177,3.26202035,0.12181954,0.00679633,0.46642256,-0.23683850,
3702,-0.04939592,-0.36068508,5.54477072,6.00000000,-0.02416992,0.05317383,0.13426030,0.31214073,-0.03417961,0.19999999,0.00766789,0.10471340,0.02979871,-0.02582876,-0.04231516,-3.65471935,3.29692674,0.31208339,0.00775466,0.43223453,-0.22778288,
3710,0.26424450,-0.03028524,6.49526834,6.00000000,0.03706055,-0.04995117,0.13492645,0.39714223,-0.06335725,0.19999999,0.00766789,0.07458455,0.05153290,-0.04897465,-0.04231516,-3.22187781,2.96705961,0.39736485,0.00772870,0.43223453,-0.19418983,
3718,0.01045913,-0.74854577,9.92376518,6.00000000,0.07250977,-0.07895508,0.02367836,0.28749296,0.00485715,0.19999999,0.00766789,0.13740277,0.03869089,-0.03414540,-0.04231516,-2.90422773,2.43473434,0.28749672,0.01031983,0.43223453,-0.17150688,
3726,1.04954267,-0.94247609,12.68906879,6.00000000,0.05478515,-0.06445312,-0.08703679,0.01516826,0.09905163,0.19999999,0.00766789,-0.00654019,-0.01757161,0.01917814,-0.04231516,-2.16944432,2.19213343,0.01519248,0.00795997,0.43223453,-0.15593514,
3734,0.75026745,-0.42293432,14.90849304,6.00000000,-0.01127930,0.03061523,-0.18362945,-0.20866024,0.20323847,0.19999999,0.00766789,-0.00506435,-0.07222465,0.07518443,-0.04231516,-2.14850020,2.16595364,-0.20862123,0.00656612,0.47130656,-0.17034970,
3742,-0.37261313,0.86754042,13.61801815,6.00000000,-0.11118164,0.13857421,-0.15391889,-0.31870922,0.14488319,0.19999999,0.00766789,0.00513628,-0.09957589,0.10347633,-0.04231516,-2.39982772,2.38237453,-0.31871513,0.00531812,0.47130656,-0.19510393,
3749,0.04637215,0.45573771,9.87109280,5.00000000,-0.14340821,0.18369141,0.01541803,-0.25169390,0.13355853,0.19999999,0.00766789,0.01122572,-0.09508501,0.09914415,-0.04231516,-2.85361338,2.81521606,-0.25179535,0.00258329,0.47130656,-0.22220729,
3758,-0.19304802,0.29772040,6.68919897,6.00000000,-0.14985351,0.18369141,0.05179015,0.05447147,-0.01899124,0.19999999,-0.00383413,0.08431993,-0.03714349,0.04241390,-0.04231516,-3.45051599,3.16253662,0.05440634,0.00187666,0.47130656,-0.23415723,
3766,0.04158375,0.26420158,5.36999369,6.00000000,-0.05961914,0.08217774,0.15131389,0.32732907,-0.06921943,0.19999999,-0.00383413,0.08991502,0.01733994,-0.01306950,-0.04231516,-3.70533395,3.39815593,0.32731694,0.00239020,0.47130656,-0.23215827,
3774,0.00088232,-0.32716626,6.35640478,6.00000000,0.02255859,-0.01933594,0.19847775,0.49986354,-0.06002647,0.19999999,-0.00383413,0.06794710,0.05934962,-0.05668086,-0.04231516,-3.35277748,3.12064886,0.49989831,0.00476417,0.47619057,-0.19705388,
3782,0.09904459,-1.01669633,8.31246758,6.00000000,0.08217774,-0.09506836,0.05045784,0.41153124,-0.04603719,0.19999999,-0.00383413,0.06282961,0.05096330,-0.04832461,-0.04231516,-2.97404099,2.75936556,0.41161370,0.00840723,0.47619057,-0.17676677,
3790,0.19960107,-0.71502692,12.05221081,6.00000000,0.07573242,-0.09184571,-0.07184845,0.19836122,0.05135485,0.19999999,-0.00383413,-0.00924237,0.01542268,-0.01416205,-0.04231516,-2.20784140,2.23925757,0.19825380,0.01000179,0.47863245,-0.14582394,
3798,0.58027911,-0.51870239,15.20058632,6.00000000,0.01933594,-0.03383789,-0.12380864,-0.11459897,0.15740693,0.19999999,-0.00383413,-0.06284314,-0.04598416,0.04704962,-0.04231516,-1.94429684,2.15897226,-0.11476977,0.01141207,0.47863245,-0.15597112,
3806,0.34804156,0.16125090,13.60365295,6.00000000,-0.06767578,0.08862305,-0.20894343,-0.28593433,0.14474995,0.19999999,-0.00383413,-0.01475978,-0.08853138,0.09191927,-0.04231516,-2.07519650,2.12581110,-0.28599161,0.00697945,0.48107457,-0.17181957,
3814,0.15650544,0.58502460,11.07537651,6.00000000,-0.12407227,0.16274413,-0.04906590,-0.29845807,0.11823693,0.19999999,-0.00383413,0.02143005,-0.09956511,0.10430714,-0.04231516,-2.56214333,2.48883963,-0.29843667,0.00442054,0.48107457,-0.20332405,
3821,-0.89454913,0.12294367,8.48006153,5.00000000,-0.15468749,0.19658203,0.02687591,-0.02813190,0.01684796,0.19999999,-0.00383413,0.03268851,-0.04646691,0.05042719,-0.04231516,-2.96182370,2.85012269,-0.02822277,0.00539348,0.48107457,-0.21126029,
3830,-0.25529727,0.52756375,5.13536215,6.00000000,-0.06284180,0.08862305,0.11254360,0.20595540,-0.06975235,0.19999999,-0.00383413,0.12365857,-0.00004405,0.00562613,-0.04231516,-3.42084527,2.99847579,0.20592916,0.00580880,0.48351645,-0.21627627,
3838,0.43423283,0.08224224,5.84165144,6.00000000,-0.00805664,0.02094727,0.19901067,0.40207180,-0.07894530,0.19999999,-0.00383413,0.10310176,0.03993710,-0.03586330,-0.04231516,-3.19220710,2.83965063,0.40199444,0.00407646,0.48351645,-0.18819754,
3846,-0.03742491,-0.55461538,6.71553516,6.00000000,0.05800781,-0.06606445,0.12946397,0.41965833,-0.06708772,0.19999999,-0.00383413,0.09246507,0.05028100,-0.04677264,-0.04231516,-2.92342639,2.60752177,0.41967705,0.00712315,0.48840046,-0.16889232,
3854,-0.53781307,-0.80361241,11.93250084,6.00000000,0.06606445,-0.07573242,-0.07864323,0.24978846,0.00658915,0.19999999,-0.00383413,0.04957078,0.02624238,-0.02353322,-0.04231516,-2.26194692,2.09264970,0.24957752,0.01027037,0.48840046,-0.13879821,
3862,1.57147861,-0.41096330,13.26128292,6.00000000,0.04995117,-0.04028320,-0.10782087,-0.05424522,0.11703786,0.19999999,-0.00383413,-0.02709381,-0.03020289,0.03193086,-0.04231516,-1.84830368,1.94080603,-0.05431591,0.01304237,0.48840046,-0.14031823,
3870,0.96813983,-0.67432547,14.51105595,6.00000000,-0.04511719,0.04833984,-0.19335532,-0.22371538,0.14275149,0.19999999,-0.00383413,-0.07967956,-0.07374368,0.07493989,-0.04231516,-1.75754654,2.02981806,-0.22375445,0.00800886,0.48840046,-0.15245852,
3878,-0.56175506,1.04471135,12.26050663,6.00000000,-0.10795899,0.14018555,-0.09956053,-0.23810436,0.16007154,0.19999999,-0.00383413,-0.03878654,-0.08040231,0.08296217,-0.04231516,-2.10835791,2.24100256,-0.23818372,0.00741377,0.48840046,-0.17372793,
3886,0.21396628,0.65206224,8.72905922,6.00000000,-0.11279297,0.14824219,0.00009643,-0.16949025,-0.00313673,0.19999999,-0.00383413,0.01379089,-0.07562996,0.07964921,-0.04231516,-2.57436061,2.52723670,-0.16959853,0.00367921,0.48840046,-0.19586743,
3893,-0.22417264,0.21871173,6.04755306,5.00000000,-0.11762695,0.14824219,0.08536443,0.12561695,-0.05496368,0.19999999,-0.00383413,0.07556441,-0.01669200,0.02121788,-0.04231516,-2.97404099,2.71573234,0.12555380,0.00394891,0.48840046,-0.19579622,
